subnum,set,trial,transform,baseimg,imgname,resp,corr,abstime,rt
5006,1,1,Transformed-Images/Original-Tools/,shovel,Transformed-Images/Original-Tools/shovel2.jpg,shovel,1,575861,2112
5006,1,2,Transformed-Images/Original-Tools/,screw,Transformed-Images/Original-Tools/screw2.jpg,screw,1,577981,1449
5006,1,3,Transformed-Images/Original-Tools/,tape,Transformed-Images/Original-Tools/tape2.jpg,tape,1,579438,1689
5006,1,4,Transformed-Images/Original-Tools/,wrench,Transformed-Images/Original-Tools/wrench5.jpg,wrench,1,581135,1987
5006,1,5,Transformed-Images/Original-Tools/,wrench,Transformed-Images/Original-Tools/wrench4.jpg,wrench,1,583130,1504
5006,1,6,Transformed-Images/Original-Tools/,shovel,Transformed-Images/Original-Tools/shovel5.jpg,shovel,1,584643,1241
5006,1,7,Transformed-Images/Original-Tools/,scissor,Transformed-Images/Original-Tools/scissor2.jpg,scissor,1,585892,2010
5006,1,8,Transformed-Images/Original-Tools/,shovel,Transformed-Images/Original-Tools/shovel3.jpg,shovel,1,587910,1198
5006,1,9,Transformed-Images/Original-Tools/,hammer,Transformed-Images/Original-Tools/hammer1.jpg,hammer,1,589116,1484
5006,1,10,Transformed-Images/Original-Tools/,axe,Transformed-Images/Original-Tools/axe3.jpg,axe,1,590609,1761
5006,1,11,Transformed-Images/Original-Tools/,hammer,Transformed-Images/Original-Tools/hammer4.jpg,hammer,1,592378,1590
5006,1,12,Transformed-Images/Original-Tools/,axe,Transformed-Images/Original-Tools/axe1.jpg,axe,1,593977,1233
5006,1,13,Transformed-Images/Original-Tools/,saw,Transformed-Images/Original-Tools/saw4.jpg,saw,1,595218,3200
5006,1,14,Transformed-Images/Original-Tools/,flash,Transformed-Images/Original-Tools/flash1.jpg,flash,1,598426,1254
5006,1,15,Transformed-Images/Original-Tools/,screw,Transformed-Images/Original-Tools/screw4.jpg,screw,1,599688,1260
5006,1,16,Transformed-Images/Original-Tools/,axe,Transformed-Images/Original-Tools/axe2.jpg,axe,1,600956,2453
5006,1,17,Transformed-Images/Original-Tools/,saw,Transformed-Images/Original-Tools/saw5.jpg,saw,1,603418,1232
5006,1,18,Transformed-Images/Original-Tools/,tape,Transformed-Images/Original-Tools/tape4.jpg,tape,1,604659,1227
5006,1,19,Transformed-Images/Original-Tools/,wrench,Transformed-Images/Original-Tools/wrench3.jpg,wrench,1,605894,1011
5006,1,20,Transformed-Images/Original-Tools/,screw,Transformed-Images/Original-Tools/screw3.jpg,screw,1,606914,1810
5006,1,21,Transformed-Images/Original-Tools/,hammer,Transformed-Images/Original-Tools/hammer2.jpg,hammer,1,608733,1243
5006,1,22,Transformed-Images/Original-Tools/,saw,Transformed-Images/Original-Tools/saw2.jpg,saw,1,609984,2330
5006,1,23,Transformed-Images/Original-Tools/,plier,Transformed-Images/Original-Tools/plier3.jpg,plier,1,612323,3851
5006,1,24,Transformed-Images/Original-Tools/,scissor,Transformed-Images/Original-Tools/scissor3.jpg,scissor,1,616182,1918
5006,1,25,Transformed-Images/Original-Tools/,flash,Transformed-Images/Original-Tools/flash3.jpg,flash,1,618108,1452
5006,1,26,Transformed-Images/Original-Tools/,plier,Transformed-Images/Original-Tools/plier1.jpg,plier,1,619568,1886
5006,1,27,Transformed-Images/Original-Tools/,scissor,Transformed-Images/Original-Tools/scissor5.jpg,scissor,1,621462,2030
5006,1,28,Transformed-Images/Original-Tools/,plier,Transformed-Images/Original-Tools/plier4.jpg,plier,1,623500,1370
5006,1,29,Transformed-Images/Original-Tools/,tape,Transformed-Images/Original-Tools/tape1.jpg,tape,1,624878,1223
5006,1,30,Transformed-Images/Original-Tools/,flash,Transformed-Images/Original-Tools/flash5.jpg,flash,1,626110,1490
5006,1,31,Transformed-Images/Charcol-Tools/,hammer,Transformed-Images/Charcol-Tools/hammer3.jpg,hammer,1,632497,1701
5006,1,32,Transformed-Images/Charcol-Tools/,flash,Transformed-Images/Charcol-Tools/flash4.jpg,flash,1,634205,1170
5006,1,33,Transformed-Images/Charcol-Tools/,saw,Transformed-Images/Charcol-Tools/saw1.jpg,saw,1,635382,1347
5006,1,34,Transformed-Images/Charcol-Tools/,axe,Transformed-Images/Charcol-Tools/axe1.jpg,axe,1,636736,1408
5006,1,35,Transformed-Images/Charcol-Tools/,axe,Transformed-Images/Charcol-Tools/axe5.jpg,axe,1,638150,1362
5006,1,36,Transformed-Images/Charcol-Tools/,tape,Transformed-Images/Charcol-Tools/tape1.jpg,tape,1,639519,1085
5006,1,37,Transformed-Images/Charcol-Tools/,screw,Transformed-Images/Charcol-Tools/screw2.jpg,screw,1,640611,1311
5006,1,38,Transformed-Images/Charcol-Tools/,flash,Transformed-Images/Charcol-Tools/flash1.jpg,flash,1,641930,1269
5006,1,39,Transformed-Images/Charcol-Tools/,screw,Transformed-Images/Charcol-Tools/screw3.jpg,screw,1,643206,1291
5006,1,40,Transformed-Images/Charcol-Tools/,plier,Transformed-Images/Charcol-Tools/plier4.jpg,plier,1,644505,1475
5006,1,41,Transformed-Images/Charcol-Tools/,plier,Transformed-Images/Charcol-Tools/plier1.jpg,plier,1,645988,1152
5006,1,42,Transformed-Images/Charcol-Tools/,shovel,Transformed-Images/Charcol-Tools/shovel1.jpg,shovel,1,647147,1878
5006,1,43,Transformed-Images/Charcol-Tools/,shovel,Transformed-Images/Charcol-Tools/shovel2.jpg,shovel,1,649032,961
5006,1,44,Transformed-Images/Charcol-Tools/,saw,Transformed-Images/Charcol-Tools/saw3.jpg,saw,1,650000,1296
5006,1,45,Transformed-Images/Charcol-Tools/,hammer,Transformed-Images/Charcol-Tools/hammer2.jpg,hammer,1,651304,1317
5006,1,46,Transformed-Images/Charcol-Tools/,axe,Transformed-Images/Charcol-Tools/axe3.jpg,axe,1,652629,1250
5006,1,47,Transformed-Images/Charcol-Tools/,scissor,Transformed-Images/Charcol-Tools/scissor5.jpg,scissor,1,653886,1796
5006,1,48,Transformed-Images/Charcol-Tools/,screw,Transformed-Images/Charcol-Tools/screw5.jpg,screw,1,655690,1064
5006,1,49,Transformed-Images/Charcol-Tools/,wrench,Transformed-Images/Charcol-Tools/wrench1.jpg,wrench,1,656761,1670
5006,1,50,Transformed-Images/Charcol-Tools/,hammer,Transformed-Images/Charcol-Tools/hammer1.jpg,hammer,1,658438,1134
5006,1,51,Transformed-Images/Charcol-Tools/,tape,Transformed-Images/Charcol-Tools/tape5.jpg,tape,1,659579,1135
5006,1,52,Transformed-Images/Charcol-Tools/,wrench,Transformed-Images/Charcol-Tools/wrench5.jpg,wrench,1,660722,1012
5006,1,53,Transformed-Images/Charcol-Tools/,scissor,Transformed-Images/Charcol-Tools/scissor2.jpg,scissor,1,661741,1388
5006,1,54,Transformed-Images/Charcol-Tools/,shovel,Transformed-Images/Charcol-Tools/shovel5.jpg,shovel,1,663136,1400
5006,1,55,Transformed-Images/Charcol-Tools/,tape,Transformed-Images/Charcol-Tools/tape4.jpg,tape,1,664543,1571
5006,1,56,Transformed-Images/Charcol-Tools/,scissor,Transformed-Images/Charcol-Tools/scissor4.jpg,scissor,1,666122,1752
5006,1,57,Transformed-Images/Charcol-Tools/,saw,Transformed-Images/Charcol-Tools/saw4.jpg,saw,1,667881,1238
5006,1,58,Transformed-Images/Charcol-Tools/,flash,Transformed-Images/Charcol-Tools/flash2.jpg,flash,1,669127,942
5006,1,59,Transformed-Images/Charcol-Tools/,wrench,Transformed-Images/Charcol-Tools/wrench4.jpg,wrench,1,670076,1866
5006,1,60,Transformed-Images/Charcol-Tools/,plier,Transformed-Images/Charcol-Tools/plier2.jpg,plier,1,671949,1294
5006,1,61,Transformed-Images/Resize/,wrench,Transformed-Images/Resize/wrench2.jpg,wrench,1,676847,1855
5006,1,62,Transformed-Images/Resize/,plier,Transformed-Images/Resize/plier3.jpg,plier,1,678709,1117
5006,1,63,Transformed-Images/Resize/,scissor,Transformed-Images/Resize/scissor3.jpg,scissor,1,679833,1648
5006,1,64,Transformed-Images/Resize/,shovel,Transformed-Images/Resize/shovel4.jpg,shovel,1,681487,928
5006,1,65,Transformed-Images/Resize/,saw,Transformed-Images/Resize/saw1.jpg,saw,1,682422,1488
5006,1,66,Transformed-Images/Resize/,flash,Transformed-Images/Resize/flash5.jpg,flash,1,683917,1287
5006,1,67,Transformed-Images/Resize/,scissor,Transformed-Images/Resize/scissor2.jpg,scissor,1,685211,1558
5006,1,68,Transformed-Images/Resize/,scissor,Transformed-Images/Resize/scissor4.jpg,scissor,1,686775,1658
5006,1,69,Transformed-Images/Resize/,shovel,Transformed-Images/Resize/shovel2.jpg,shovel,1,688439,1152
5006,1,70,Transformed-Images/Resize/,saw,Transformed-Images/Resize/saw4.jpg,saw,1,689598,1383
5006,1,71,Transformed-Images/Resize/,wrench,Transformed-Images/Resize/wrench5.jpg,wrench,1,690988,1248
5006,1,72,Transformed-Images/Resize/,axe,Transformed-Images/Resize/axe5.jpg,axe,1,692243,1097
5006,1,73,Transformed-Images/Resize/,saw,Transformed-Images/Resize/saw2.jpg,saw,1,693347,1290
5006,1,74,Transformed-Images/Resize/,plier,Transformed-Images/Resize/plier4.jpg,plier,1,694644,1654
5006,1,75,Transformed-Images/Resize/,screw,Transformed-Images/Resize/screw4.jpg,screw,1,696304,1295
5006,1,76,Transformed-Images/Resize/,axe,Transformed-Images/Resize/axe3.jpg,axe,1,697606,1782
5006,1,77,Transformed-Images/Resize/,tape,Transformed-Images/Resize/tape1.jpg,tape,1,699395,1126
5006,1,78,Transformed-Images/Resize/,shovel,Transformed-Images/Resize/shovel5.jpg,shovel,1,700527,1191
5006,1,79,Transformed-Images/Resize/,flash,Transformed-Images/Resize/flash2.jpg,flash,1,701725,1166
5006,1,80,Transformed-Images/Resize/,screw,Transformed-Images/Resize/screw1.jpg,screw,1,702898,1301
5006,1,81,Transformed-Images/Resize/,tape,Transformed-Images/Resize/tape5.jpg,tape,1,704206,1211
5006,1,82,Transformed-Images/Resize/,flash,Transformed-Images/Resize/flash1.jpg,flash,1,705424,1170
5006,1,83,Transformed-Images/Resize/,hammer,Transformed-Images/Resize/hammer4.jpg,hammer,1,706601,1097
5006,1,84,Transformed-Images/Resize/,axe,Transformed-Images/Resize/axe2.jpg,axe,1,707704,1179
5006,1,85,Transformed-Images/Resize/,plier,Transformed-Images/Resize/plier2.jpg,plier,1,708889,1152
5006,1,86,Transformed-Images/Resize/,hammer,Transformed-Images/Resize/hammer3.jpg,hammer,1,710047,1195
5006,1,87,Transformed-Images/Resize/,wrench,Transformed-Images/Resize/wrench3.jpg,wrench,1,711248,1259
5006,1,88,Transformed-Images/Resize/,tape,Transformed-Images/Resize/tape3.jpg,tape,1,712514,1190
5006,1,89,Transformed-Images/Resize/,hammer,Transformed-Images/Resize/hammer1.jpg,hammer,1,713710,1692
5006,1,90,Transformed-Images/Resize/,screw,Transformed-Images/Resize/screw3.jpg,screw,1,715408,1110
5006,1,91,Transformed-Images/BW-Tools/,tape,Transformed-Images/BW-Tools/tape2.jpg,tape,1,718892,1396
5006,1,92,Transformed-Images/BW-Tools/,plier,Transformed-Images/BW-Tools/plier2.jpg,plier,1,720295,1483
5006,1,93,Transformed-Images/BW-Tools/,saw,Transformed-Images/BW-Tools/saw5.jpg,saw,1,721785,1234
5006,1,94,Transformed-Images/BW-Tools/,wrench,Transformed-Images/BW-Tools/wrench5.jpg,wrench,1,723027,1792
5006,1,95,Transformed-Images/BW-Tools/,flash,Transformed-Images/BW-Tools/flash2.jpg,flash,1,724826,1248
5006,1,96,Transformed-Images/BW-Tools/,tape,Transformed-Images/BW-Tools/tape1.jpg,tape,1,726081,1310
5006,1,97,Transformed-Images/BW-Tools/,screw,Transformed-Images/BW-Tools/screw2.jpg,screw,1,727398,1103
5006,1,98,Transformed-Images/BW-Tools/,hammer,Transformed-Images/BW-Tools/hammer3.jpg,hammer,1,728509,1068
5006,1,99,Transformed-Images/BW-Tools/,wrench,Transformed-Images/BW-Tools/wrench3.jpg,wrench,1,729584,1147
5006,1,100,Transformed-Images/BW-Tools/,hammer,Transformed-Images/BW-Tools/hammer2.jpg,hammer,1,730738,1151
5006,1,101,Transformed-Images/BW-Tools/,axe,Transformed-Images/BW-Tools/axe3.jpg,axe,1,731896,1942
5006,1,102,Transformed-Images/BW-Tools/,axe,Transformed-Images/BW-Tools/axe4.jpg,axe,1,733842,1489
5006,1,103,Transformed-Images/BW-Tools/,plier,Transformed-Images/BW-Tools/plier3.jpg,plier,1,735338,1102
5006,1,104,Transformed-Images/BW-Tools/,tape,Transformed-Images/BW-Tools/tape5.jpg,tape,1,736447,1263
5006,1,105,Transformed-Images/BW-Tools/,shovel,Transformed-Images/BW-Tools/shovel4.jpg,shovel,1,737717,966
5006,1,106,Transformed-Images/BW-Tools/,flash,Transformed-Images/BW-Tools/flash5.jpg,flash,1,738691,1542
5006,1,107,Transformed-Images/BW-Tools/,screw,Transformed-Images/BW-Tools/screw4.jpg,screw,1,740240,1132
5006,1,108,Transformed-Images/BW-Tools/,flash,Transformed-Images/BW-Tools/flash4.jpg,flash,1,741380,1229
5006,1,109,Transformed-Images/BW-Tools/,screw,Transformed-Images/BW-Tools/screw5.jpg,screw,1,742616,1068
5006,1,110,Transformed-Images/BW-Tools/,scissor,Transformed-Images/BW-Tools/scissor2.jpg,scissor,1,743692,1161
5006,1,111,Transformed-Images/BW-Tools/,shovel,Transformed-Images/BW-Tools/shovel1.jpg,shovel,1,744861,1095
5006,1,112,Transformed-Images/BW-Tools/,saw,Transformed-Images/BW-Tools/saw4.jpg,saw,1,745963,1360
5006,1,113,Transformed-Images/BW-Tools/,shovel,Transformed-Images/BW-Tools/shovel5.jpg,shovel,1,747330,1258
5006,1,114,Transformed-Images/BW-Tools/,scissor,Transformed-Images/BW-Tools/scissor3.jpg,scissor,1,748595,1418
5006,1,115,Transformed-Images/BW-Tools/,saw,Transformed-Images/BW-Tools/saw1.jpg,saw,1,750021,990
5006,1,116,Transformed-Images/BW-Tools/,plier,Transformed-Images/BW-Tools/plier4.jpg,plier,1,751018,1181
5006,1,117,Transformed-Images/BW-Tools/,axe,Transformed-Images/BW-Tools/axe1.jpg,axe,1,752206,1235
5006,1,118,Transformed-Images/BW-Tools/,hammer,Transformed-Images/BW-Tools/hammer5.jpg,hammer,1,753448,1783
5006,1,119,Transformed-Images/BW-Tools/,wrench,Transformed-Images/BW-Tools/wrench4.jpg,wrench,1,755238,955
5006,1,120,Transformed-Images/BW-Tools/,scissor,Transformed-Images/BW-Tools/scissor5.jpg,screw,0,756200,4212
5006,1,121,Transformed-Images/Edge-White-Tools/,saw,Transformed-Images/Edge-White-Tools/saw2.jpg,saw,1,763109,1437
5006,1,122,Transformed-Images/Edge-White-Tools/,flash,Transformed-Images/Edge-White-Tools/flash5.jpg,flash,1,764554,1022
5006,1,123,Transformed-Images/Edge-White-Tools/,tape,Transformed-Images/Edge-White-Tools/tape4.jpg,tape,1,765583,974
5006,1,124,Transformed-Images/Edge-White-Tools/,scissor,Transformed-Images/Edge-White-Tools/scissor4.jpg,scissor,1,766565,1766
5006,1,125,Transformed-Images/Edge-White-Tools/,tape,Transformed-Images/Edge-White-Tools/tape3.jpg,tape,1,768339,1033
5006,1,126,Transformed-Images/Edge-White-Tools/,hammer,Transformed-Images/Edge-White-Tools/hammer3.jpg,hammer,1,769380,1194
5006,1,127,Transformed-Images/Edge-White-Tools/,flash,Transformed-Images/Edge-White-Tools/flash3.jpg,flash,1,770581,1330
5006,1,128,Transformed-Images/Edge-White-Tools/,plier,Transformed-Images/Edge-White-Tools/plier1.jpg,plier,1,771918,2463
5006,1,129,Transformed-Images/Edge-White-Tools/,axe,Transformed-Images/Edge-White-Tools/axe2.jpg,axe,1,774389,1467
5006,1,130,Transformed-Images/Edge-White-Tools/,axe,Transformed-Images/Edge-White-Tools/axe4.jpg,axe,1,775863,1146
5006,1,131,Transformed-Images/Edge-White-Tools/,saw,Transformed-Images/Edge-White-Tools/saw1.jpg,saw,1,777016,1345
5006,1,132,Transformed-Images/Edge-White-Tools/,scissor,Transformed-Images/Edge-White-Tools/scissor2.jpg,scissor,1,778368,1124
5006,1,133,Transformed-Images/Edge-White-Tools/,flash,Transformed-Images/Edge-White-Tools/flash1.jpg,flash,1,779499,1084
5006,1,134,Transformed-Images/Edge-White-Tools/,screw,Transformed-Images/Edge-White-Tools/screw5.jpg,screw,1,780590,1069
5006,1,135,Transformed-Images/Edge-White-Tools/,screw,Transformed-Images/Edge-White-Tools/screw2.jpg,screw,1,781666,1073
5006,1,136,Transformed-Images/Edge-White-Tools/,shovel,Transformed-Images/Edge-White-Tools/shovel1.jpg,shovel,1,782746,879
5006,1,137,Transformed-Images/Edge-White-Tools/,screw,Transformed-Images/Edge-White-Tools/screw1.jpg,screw,1,783632,1123
5006,1,138,Transformed-Images/Edge-White-Tools/,wrench,Transformed-Images/Edge-White-Tools/wrench1.jpg,wrench,1,784762,1741
5006,1,139,Transformed-Images/Edge-White-Tools/,shovel,Transformed-Images/Edge-White-Tools/shovel5.jpg,shovel,1,786510,2531
5006,1,140,Transformed-Images/Edge-White-Tools/,tape,Transformed-Images/Edge-White-Tools/tape1.jpg,tape,1,789048,1036
5006,1,141,Transformed-Images/Edge-White-Tools/,saw,Transformed-Images/Edge-White-Tools/saw4.jpg,saw,1,790091,885
5006,1,142,Transformed-Images/Edge-White-Tools/,axe,Transformed-Images/Edge-White-Tools/axe5.jpg,axe,1,790983,1064
5006,1,143,Transformed-Images/Edge-White-Tools/,scissor,Transformed-Images/Edge-White-Tools/scissor1.jpg,scissor,1,792054,1197
5006,1,144,Transformed-Images/Edge-White-Tools/,plier,Transformed-Images/Edge-White-Tools/plier4.jpg,plier,1,793258,939
5006,1,145,Transformed-Images/Edge-White-Tools/,wrench,Transformed-Images/Edge-White-Tools/wrench2.jpg,wrench,1,794204,1292
5006,1,146,Transformed-Images/Edge-White-Tools/,plier,Transformed-Images/Edge-White-Tools/plier2.jpg,plier,1,795504,1221
5006,1,147,Transformed-Images/Edge-White-Tools/,wrench,Transformed-Images/Edge-White-Tools/wrench4.jpg,wrench,1,796732,1035
5006,1,148,Transformed-Images/Edge-White-Tools/,hammer,Transformed-Images/Edge-White-Tools/hammer4.jpg,hammer,1,797775,1110
5006,1,149,Transformed-Images/Edge-White-Tools/,shovel,Transformed-Images/Edge-White-Tools/shovel2.jpg,shovel,1,798893,1011
5006,1,150,Transformed-Images/Edge-White-Tools/,hammer,Transformed-Images/Edge-White-Tools/hammer2.jpg,hammer,1,799911,1061
5006,1,151,Transformed-Images/Implode-Tools/,flash,Transformed-Images/Implode-Tools/flash4.jpg,flash,1,803140,1465
5006,1,152,Transformed-Images/Implode-Tools/,flash,Transformed-Images/Implode-Tools/flash1.jpg,flash,1,804613,1040
5006,1,153,Transformed-Images/Implode-Tools/,hammer,Transformed-Images/Implode-Tools/hammer4.jpg,hammer,1,805661,1672
5006,1,154,Transformed-Images/Implode-Tools/,plier,Transformed-Images/Implode-Tools/plier5.jpg,plier,1,807341,1343
5006,1,155,Transformed-Images/Implode-Tools/,saw,Transformed-Images/Implode-Tools/saw2.jpg,saw,1,808692,1659
5006,1,156,Transformed-Images/Implode-Tools/,tape,Transformed-Images/Implode-Tools/tape5.jpg,tape,1,810360,1075
5006,1,157,Transformed-Images/Implode-Tools/,wrench,Transformed-Images/Implode-Tools/wrench2.jpg,wrench,1,811443,1043
5006,1,158,Transformed-Images/Implode-Tools/,screw,Transformed-Images/Implode-Tools/screw3.jpg,screw,1,812495,1018
5006,1,159,Transformed-Images/Implode-Tools/,plier,Transformed-Images/Implode-Tools/plier1.jpg,plier,1,813521,1123
5006,1,160,Transformed-Images/Implode-Tools/,axe,Transformed-Images/Implode-Tools/axe2.jpg,axe,1,814652,1073
5006,1,161,Transformed-Images/Implode-Tools/,screw,Transformed-Images/Implode-Tools/screw4.jpg,screw,1,815734,1250
5006,1,162,Transformed-Images/Implode-Tools/,plier,Transformed-Images/Implode-Tools/plier2.jpg,plier,1,816992,1083
5006,1,163,Transformed-Images/Implode-Tools/,axe,Transformed-Images/Implode-Tools/axe1.jpg,axe,1,818083,1163
5006,1,164,Transformed-Images/Implode-Tools/,flash,Transformed-Images/Implode-Tools/flash5.jpg,flash,1,819254,1078
5006,1,165,Transformed-Images/Implode-Tools/,wrench,Transformed-Images/Implode-Tools/wrench4.jpg,wrench,1,820341,1232
5006,1,166,Transformed-Images/Implode-Tools/,hammer,Transformed-Images/Implode-Tools/hammer5.jpg,hammer,1,821582,1142
5006,1,167,Transformed-Images/Implode-Tools/,shovel,Transformed-Images/Implode-Tools/shovel1.jpg,shovel,1,822732,1283
5006,1,168,Transformed-Images/Implode-Tools/,shovel,Transformed-Images/Implode-Tools/shovel2.jpg,shovel,1,824024,1263
5006,1,169,Transformed-Images/Implode-Tools/,axe,Transformed-Images/Implode-Tools/axe4.jpg,axe,1,825296,1925
5006,1,170,Transformed-Images/Implode-Tools/,saw,Transformed-Images/Implode-Tools/saw1.jpg,saw,1,827229,1081
5006,1,171,Transformed-Images/Implode-Tools/,tape,Transformed-Images/Implode-Tools/tape4.jpg,tape,1,828319,1283
5006,1,172,Transformed-Images/Implode-Tools/,scissor,Transformed-Images/Implode-Tools/scissor5.jpg,scissor,1,829610,1694
5006,1,173,Transformed-Images/Implode-Tools/,screw,Transformed-Images/Implode-Tools/screw1.jpg,screw,1,831312,991
5006,1,174,Transformed-Images/Implode-Tools/,scissor,Transformed-Images/Implode-Tools/scissor2.jpg,scissor,1,832312,1880
5006,1,175,Transformed-Images/Implode-Tools/,saw,Transformed-Images/Implode-Tools/saw5.jpg,saw,1,834200,1486
5006,1,176,Transformed-Images/Implode-Tools/,wrench,Transformed-Images/Implode-Tools/wrench3.jpg,wrench,1,835694,1312
5006,1,177,Transformed-Images/Implode-Tools/,shovel,Transformed-Images/Implode-Tools/shovel3.jpg,shovel,1,837014,1432
5006,1,178,Transformed-Images/Implode-Tools/,hammer,Transformed-Images/Implode-Tools/hammer2.jpg,hammer,1,838455,1708
5006,1,179,Transformed-Images/Implode-Tools/,tape,Transformed-Images/Implode-Tools/tape2.jpg,tape,1,840171,1030
5006,1,180,Transformed-Images/Implode-Tools/,scissor,Transformed-Images/Implode-Tools/scissor1.jpg,scissor,1,841208,1320
5006,3,1,Transformed-Images/Frame-Nature/,shovel,Transformed-Images/Frame-Nature/shovel1.jpg,shovel,1,408070,1396
5006,3,2,Transformed-Images/Frame-Nature/,shovel,Transformed-Images/Frame-Nature/shovel4.jpg,shovel,1,409486,1197
5006,3,3,Transformed-Images/Frame-Nature/,hammer,Transformed-Images/Frame-Nature/hammer3.jpg,hammer,1,410702,1329
5006,3,4,Transformed-Images/Frame-Nature/,flash,Transformed-Images/Frame-Nature/flash2.jpg,flash,1,412050,886
5006,3,5,Transformed-Images/Frame-Nature/,plier,Transformed-Images/Frame-Nature/plier1.jpg,plier,1,412955,1035
5006,3,6,Transformed-Images/Frame-Nature/,screw,Transformed-Images/Frame-Nature/screw1.jpg,screw,1,414009,1466
5006,3,7,Transformed-Images/Frame-Nature/,axe,Transformed-Images/Frame-Nature/axe2.jpg,axe,1,415494,1211
5006,3,8,Transformed-Images/Frame-Nature/,tape,Transformed-Images/Frame-Nature/tape1.jpg,tape,1,416724,1106
5006,3,9,Transformed-Images/Frame-Nature/,saw,Transformed-Images/Frame-Nature/saw4.jpg,saw,1,417849,929
5006,3,10,Transformed-Images/Frame-Nature/,hammer,Transformed-Images/Frame-Nature/hammer1.jpg,hammer,1,418797,962
5006,3,11,Transformed-Images/Frame-Nature/,hammer,Transformed-Images/Frame-Nature/hammer4.jpg,hammer,1,419775,703
5006,3,12,Transformed-Images/Frame-Nature/,screw,Transformed-Images/Frame-Nature/screw4.jpg,screw,1,420494,972
5006,3,13,Transformed-Images/Frame-Nature/,wrench,Transformed-Images/Frame-Nature/wrench4.jpg,wrench,1,421485,1003
5006,3,14,Transformed-Images/Frame-Nature/,flash,Transformed-Images/Frame-Nature/flash5.jpg,flash,1,422507,948
5006,3,15,Transformed-Images/Frame-Nature/,plier,Transformed-Images/Frame-Nature/plier2.jpg,plier,1,423474,1043
5006,3,16,Transformed-Images/Frame-Nature/,axe,Transformed-Images/Frame-Nature/axe3.jpg,axe,1,424536,1792
5006,3,17,Transformed-Images/Frame-Nature/,saw,Transformed-Images/Frame-Nature/saw5.jpg,saw,1,426344,1097
5006,3,18,Transformed-Images/Frame-Nature/,tape,Transformed-Images/Frame-Nature/tape4.jpg,tape,1,427460,1088
5006,3,19,Transformed-Images/Frame-Nature/,wrench,Transformed-Images/Frame-Nature/wrench5.jpg,wrench,1,428567,929
5006,3,20,Transformed-Images/Frame-Nature/,saw,Transformed-Images/Frame-Nature/saw3.jpg,saw,1,429516,1101
5006,3,21,Transformed-Images/Frame-Nature/,scissor,Transformed-Images/Frame-Nature/scissor4.jpg,scissor,1,430636,1175
5006,3,22,Transformed-Images/Frame-Nature/,flash,Transformed-Images/Frame-Nature/flash3.jpg,flash,1,431830,961
5006,3,23,Transformed-Images/Frame-Nature/,plier,Transformed-Images/Frame-Nature/plier3.jpg,plier,1,432810,1131
5006,3,24,Transformed-Images/Frame-Nature/,wrench,Transformed-Images/Frame-Nature/wrench3.jpg,wrench,1,433960,1056
5006,3,25,Transformed-Images/Frame-Nature/,scissor,Transformed-Images/Frame-Nature/scissor1.jpg,scissor,1,435035,1280
5006,3,26,Transformed-Images/Frame-Nature/,tape,Transformed-Images/Frame-Nature/tape5.jpg,tape,1,436333,958
5006,3,27,Transformed-Images/Frame-Nature/,scissor,Transformed-Images/Frame-Nature/scissor2.jpg,scissor,1,437311,1108
5006,3,28,Transformed-Images/Frame-Nature/,axe,Transformed-Images/Frame-Nature/axe5.jpg,axe,1,438437,1010
5006,3,29,Transformed-Images/Frame-Nature/,shovel,Transformed-Images/Frame-Nature/shovel2.jpg,shovel,1,439466,999
5006,3,30,Transformed-Images/Frame-Nature/,screw,Transformed-Images/Frame-Nature/screw5.jpg,screw,1,440484,1102
5006,3,31,Transformed-Images/Rotation/,hammer,Transformed-Images/Rotation/hammer2.jpg,hammer,1,442983,1006
5006,3,32,Transformed-Images/Rotation/,scissor,Transformed-Images/Rotation/scissor1.jpg,scissor,1,443997,1199
5006,3,33,Transformed-Images/Rotation/,screw,Transformed-Images/Rotation/screw3.jpg,screw,1,445205,1717
5006,3,34,Transformed-Images/Rotation/,shovel,Transformed-Images/Rotation/shovel4.jpg,shovel,1,446932,845
5006,3,35,Transformed-Images/Rotation/,flash,Transformed-Images/Rotation/flash3.jpg,flash,1,447787,1003
5006,3,36,Transformed-Images/Rotation/,plier,Transformed-Images/Rotation/plier2.jpg,plier,1,448800,1412
5006,3,37,Transformed-Images/Rotation/,hammer,Transformed-Images/Rotation/hammer4.jpg,hammer,1,450222,1487
5006,3,38,Transformed-Images/Rotation/,flash,Transformed-Images/Rotation/flash5.jpg,flash,1,451719,974
5006,3,39,Transformed-Images/Rotation/,tape,Transformed-Images/Rotation/tape1.jpg,tape,1,452703,956
5006,3,40,Transformed-Images/Rotation/,tape,Transformed-Images/Rotation/tape3.jpg,tape,1,453668,2127
5006,3,41,Transformed-Images/Rotation/,flash,Transformed-Images/Rotation/flash1.jpg,flash,1,455804,929
5006,3,42,Transformed-Images/Rotation/,screw,Transformed-Images/Rotation/screw4.jpg,screw,1,456743,1426
5006,3,43,Transformed-Images/Rotation/,saw,Transformed-Images/Rotation/saw5.jpg,saw,1,458179,996
5006,3,44,Transformed-Images/Rotation/,axe,Transformed-Images/Rotation/axe5.jpg,axe,1,459185,1021
5006,3,45,Transformed-Images/Rotation/,wrench,Transformed-Images/Rotation/wrench5.jpg,wrench,1,460216,1047
5006,3,46,Transformed-Images/Rotation/,axe,Transformed-Images/Rotation/axe3.jpg,axe,1,461273,1125
5006,3,47,Transformed-Images/Rotation/,saw,Transformed-Images/Rotation/saw3.jpg,saw,1,462408,1247
5006,3,48,Transformed-Images/Rotation/,tape,Transformed-Images/Rotation/tape5.jpg,tape,1,463665,1010
5006,3,49,Transformed-Images/Rotation/,wrench,Transformed-Images/Rotation/wrench3.jpg,wrench,1,464685,945
5006,3,50,Transformed-Images/Rotation/,shovel,Transformed-Images/Rotation/shovel2.jpg,shovel,1,465640,1071
5006,3,51,Transformed-Images/Rotation/,plier,Transformed-Images/Rotation/plier4.jpg,plier,1,466721,1082
5006,3,52,Transformed-Images/Rotation/,saw,Transformed-Images/Rotation/saw2.jpg,saw,1,467812,1050
5006,3,53,Transformed-Images/Rotation/,wrench,Transformed-Images/Rotation/wrench1.jpg,wrench,1,468872,1629
5006,3,54,Transformed-Images/Rotation/,scissor,Transformed-Images/Rotation/scissor4.jpg,scissor,1,470511,1618
5006,3,55,Transformed-Images/Rotation/,screw,Transformed-Images/Rotation/screw5.jpg,screw,1,472139,957
5006,3,56,Transformed-Images/Rotation/,plier,Transformed-Images/Rotation/plier3.jpg,plier,1,473106,1041
5006,3,57,Transformed-Images/Rotation/,hammer,Transformed-Images/Rotation/hammer5.jpg,hammer,1,474157,1047
5006,3,58,Transformed-Images/Rotation/,axe,Transformed-Images/Rotation/axe1.jpg,axe,1,475213,1048
5006,3,59,Transformed-Images/Rotation/,shovel,Transformed-Images/Rotation/shovel1.jpg,shovel,1,476271,1120
5006,3,60,Transformed-Images/Rotation/,scissor,Transformed-Images/Rotation/scissor5.jpg,scissor,1,477401,1000
5006,3,61,Transformed-Images/Original-Tools/,scissor,Transformed-Images/Original-Tools/scissor3.jpg,scissor,1,479443,1046
5006,3,62,Transformed-Images/Original-Tools/,plier,Transformed-Images/Original-Tools/plier3.jpg,plier,1,480497,2257
5006,3,63,Transformed-Images/Original-Tools/,hammer,Transformed-Images/Original-Tools/hammer5.jpg,hammer,1,482762,1665
5006,3,64,Transformed-Images/Original-Tools/,plier,Transformed-Images/Original-Tools/plier4.jpg,plier,1,484435,1711
5006,3,65,Transformed-Images/Original-Tools/,screw,Transformed-Images/Original-Tools/screw5.jpg,screw,1,486154,941
5006,3,66,Transformed-Images/Original-Tools/,hammer,Transformed-Images/Original-Tools/hammer3.jpg,hammer,1,487103,956
5006,3,67,Transformed-Images/Original-Tools/,tape,Transformed-Images/Original-Tools/tape2.jpg,tape,1,488067,1238
5006,3,68,Transformed-Images/Original-Tools/,saw,Transformed-Images/Original-Tools/saw5.jpg,saw,1,489313,980
5006,3,69,Transformed-Images/Original-Tools/,wrench,Transformed-Images/Original-Tools/wrench5.jpg,wrench,1,490302,934
5006,3,70,Transformed-Images/Original-Tools/,flash,Transformed-Images/Original-Tools/flash1.jpg,flash,1,491245,943
5006,3,71,Transformed-Images/Original-Tools/,shovel,Transformed-Images/Original-Tools/shovel5.jpg,shovel,1,492196,1050
5006,3,72,Transformed-Images/Original-Tools/,flash,Transformed-Images/Original-Tools/flash2.jpg,flash,1,493255,925
5006,3,73,Transformed-Images/Original-Tools/,axe,Transformed-Images/Original-Tools/axe3.jpg,axe,1,494188,968
5006,3,74,Transformed-Images/Original-Tools/,flash,Transformed-Images/Original-Tools/flash3.jpg,flash,1,495165,1103
5006,3,75,Transformed-Images/Original-Tools/,shovel,Transformed-Images/Original-Tools/shovel4.jpg,shovel,1,496276,1002
5006,3,76,Transformed-Images/Original-Tools/,hammer,Transformed-Images/Original-Tools/hammer1.jpg,hammer,1,497286,901
5006,3,77,Transformed-Images/Original-Tools/,axe,Transformed-Images/Original-Tools/axe2.jpg,axe,1,498195,976
5006,3,78,Transformed-Images/Original-Tools/,plier,Transformed-Images/Original-Tools/plier1.jpg,plier,1,499180,1165
5006,3,79,Transformed-Images/Original-Tools/,wrench,Transformed-Images/Original-Tools/wrench1.jpg,wrench,1,500353,1363
5006,3,80,Transformed-Images/Original-Tools/,shovel,Transformed-Images/Original-Tools/shovel1.jpg,shovel,1,501724,921
5006,3,81,Transformed-Images/Original-Tools/,tape,Transformed-Images/Original-Tools/tape4.jpg,tape,1,502654,1458
5006,3,82,Transformed-Images/Original-Tools/,saw,Transformed-Images/Original-Tools/saw2.jpg,saw,1,504120,1317
5006,3,83,Transformed-Images/Original-Tools/,scissor,Transformed-Images/Original-Tools/scissor2.jpg,scissor,1,505445,1586
5006,3,84,Transformed-Images/Original-Tools/,axe,Transformed-Images/Original-Tools/axe1.jpg,axe,1,507039,933
5006,3,85,Transformed-Images/Original-Tools/,saw,Transformed-Images/Original-Tools/saw3.jpg,saw,1,507980,1074
5006,3,86,Transformed-Images/Original-Tools/,screw,Transformed-Images/Original-Tools/screw4.jpg,screw,1,509062,1536
5006,3,87,Transformed-Images/Original-Tools/,wrench,Transformed-Images/Original-Tools/wrench4.jpg,wrench,1,510607,989
5006,3,88,Transformed-Images/Original-Tools/,scissor,Transformed-Images/Original-Tools/scissor5.jpg,scissor,1,511604,1795
5006,3,89,Transformed-Images/Original-Tools/,tape,Transformed-Images/Original-Tools/tape5.jpg,tape,1,513407,944
5006,3,90,Transformed-Images/Original-Tools/,screw,Transformed-Images/Original-Tools/screw2.jpg,screw,1,514359,1070
5006,3,91,Transformed-Images/Sketch-Tools/,screw,Transformed-Images/Sketch-Tools/screw1.jpg,screw,1,516828,2521
5006,3,92,Transformed-Images/Sketch-Tools/,saw,Transformed-Images/Sketch-Tools/saw5.jpg,saw,1,519357,1383
5006,3,93,Transformed-Images/Sketch-Tools/,flash,Transformed-Images/Sketch-Tools/flash3.jpg,flash,1,520749,1013
5006,3,94,Transformed-Images/Sketch-Tools/,flash,Transformed-Images/Sketch-Tools/flash5.jpg,flash,1,521769,905
5006,3,95,Transformed-Images/Sketch-Tools/,hammer,Transformed-Images/Sketch-Tools/hammer1.jpg,hammer,1,522681,944
5006,3,96,Transformed-Images/Sketch-Tools/,hammer,Transformed-Images/Sketch-Tools/hammer3.jpg,hammer,1,523632,969
5006,3,97,Transformed-Images/Sketch-Tools/,screw,Transformed-Images/Sketch-Tools/screw4.jpg,screw,1,524608,941
5006,3,98,Transformed-Images/Sketch-Tools/,plier,Transformed-Images/Sketch-Tools/plier4.jpg,plier,1,525557,963
5006,3,99,Transformed-Images/Sketch-Tools/,scissor,Transformed-Images/Sketch-Tools/scissor5.jpg,scissor,1,526527,1248
5006,3,100,Transformed-Images/Sketch-Tools/,shovel,Transformed-Images/Sketch-Tools/shovel3.jpg,shovel,1,527783,1197
5006,3,101,Transformed-Images/Sketch-Tools/,screw,Transformed-Images/Sketch-Tools/screw2.jpg,screw,1,528987,1122
5006,3,102,Transformed-Images/Sketch-Tools/,shovel,Transformed-Images/Sketch-Tools/shovel5.jpg,shovel,1,530116,968
5006,3,103,Transformed-Images/Sketch-Tools/,tape,Transformed-Images/Sketch-Tools/tape5.jpg,tape,1,531091,1347
5006,3,104,Transformed-Images/Sketch-Tools/,axe,Transformed-Images/Sketch-Tools/axe4.jpg,axe,1,532446,1284
5006,3,105,Transformed-Images/Sketch-Tools/,wrench,Transformed-Images/Sketch-Tools/wrench5.jpg,wrench,1,533737,1601
5006,3,106,Transformed-Images/Sketch-Tools/,hammer,Transformed-Images/Sketch-Tools/hammer4.jpg,hammer,1,535345,2055
5006,3,107,Transformed-Images/Sketch-Tools/,axe,Transformed-Images/Sketch-Tools/axe1.jpg,axe,1,537407,1267
5006,3,108,Transformed-Images/Sketch-Tools/,saw,Transformed-Images/Sketch-Tools/saw4.jpg,saw,1,538681,1130
5006,3,109,Transformed-Images/Sketch-Tools/,plier,Transformed-Images/Sketch-Tools/plier2.jpg,plier,1,539818,941
5006,3,110,Transformed-Images/Sketch-Tools/,flash,Transformed-Images/Sketch-Tools/flash1.jpg,flash,1,540767,1034
5006,3,111,Transformed-Images/Sketch-Tools/,wrench,Transformed-Images/Sketch-Tools/wrench4.jpg,wrench,1,541808,1098
5006,3,112,Transformed-Images/Sketch-Tools/,axe,Transformed-Images/Sketch-Tools/axe3.jpg,axe,1,542914,1264
5006,3,113,Transformed-Images/Sketch-Tools/,saw,Transformed-Images/Sketch-Tools/saw3.jpg,saw,1,544185,1202
5006,3,114,Transformed-Images/Sketch-Tools/,plier,Transformed-Images/Sketch-Tools/plier1.jpg,plier,1,545394,1236
5006,3,115,Transformed-Images/Sketch-Tools/,scissor,Transformed-Images/Sketch-Tools/scissor1.jpg,scissor,1,546637,1208
5006,3,116,Transformed-Images/Sketch-Tools/,wrench,Transformed-Images/Sketch-Tools/wrench3.jpg,wrench,1,547852,1133
5006,3,117,Transformed-Images/Sketch-Tools/,shovel,Transformed-Images/Sketch-Tools/shovel2.jpg,shovel,1,548992,1499
5006,3,118,Transformed-Images/Sketch-Tools/,tape,Transformed-Images/Sketch-Tools/tape3.jpg,tape,1,550498,1075
5006,3,119,Transformed-Images/Sketch-Tools/,tape,Transformed-Images/Sketch-Tools/tape4.jpg,tape,1,551581,656
5006,3,120,Transformed-Images/Sketch-Tools/,scissor,Transformed-Images/Sketch-Tools/scissor4.jpg,scissor,1,552245,1544
5006,3,121,Transformed-Images/Rainbow-Tools/,axe,Transformed-Images/Rainbow-Tools/axe2.jpg,axe,1,555222,1659
5006,3,122,Transformed-Images/Rainbow-Tools/,shovel,Transformed-Images/Rainbow-Tools/shovel1.jpg,shovel,1,556889,1211
5006,3,123,Transformed-Images/Rainbow-Tools/,saw,Transformed-Images/Rainbow-Tools/saw1.jpg,saw,1,558108,1134
5006,3,124,Transformed-Images/Rainbow-Tools/,scissor,Transformed-Images/Rainbow-Tools/scissor3.jpg,scissor,1,559250,1723
5006,3,125,Transformed-Images/Rainbow-Tools/,tape,Transformed-Images/Rainbow-Tools/tape4.jpg,tape,1,560981,1112
5006,3,126,Transformed-Images/Rainbow-Tools/,wrench,Transformed-Images/Rainbow-Tools/wrench3.jpg,wrench,1,562101,1139
5006,3,127,Transformed-Images/Rainbow-Tools/,saw,Transformed-Images/Rainbow-Tools/saw5.jpg,saw,1,563248,1513
5006,3,128,Transformed-Images/Rainbow-Tools/,plier,Transformed-Images/Rainbow-Tools/plier4.jpg,plier,1,564769,1165
5006,3,129,Transformed-Images/Rainbow-Tools/,axe,Transformed-Images/Rainbow-Tools/axe4.jpg,axe,1,565942,1082
5006,3,130,Transformed-Images/Rainbow-Tools/,screw,Transformed-Images/Rainbow-Tools/screw1.jpg,screw,1,567032,1067
5006,3,131,Transformed-Images/Rainbow-Tools/,plier,Transformed-Images/Rainbow-Tools/plier2.jpg,plier,1,568107,1355
5006,3,132,Transformed-Images/Rainbow-Tools/,hammer,Transformed-Images/Rainbow-Tools/hammer3.jpg,hammer,1,569470,960
5006,3,133,Transformed-Images/Rainbow-Tools/,shovel,Transformed-Images/Rainbow-Tools/shovel2.jpg,shovel,1,570438,1540
5006,3,134,Transformed-Images/Rainbow-Tools/,screw,Transformed-Images/Rainbow-Tools/screw4.jpg,screw,1,571986,1017
5006,3,135,Transformed-Images/Rainbow-Tools/,flash,Transformed-Images/Rainbow-Tools/flash3.jpg,flash,1,573011,1364
5006,3,136,Transformed-Images/Rainbow-Tools/,axe,Transformed-Images/Rainbow-Tools/axe5.jpg,axe,1,574383,1048
5006,3,137,Transformed-Images/Rainbow-Tools/,tape,Transformed-Images/Rainbow-Tools/tape2.jpg,tape,1,575439,982
5006,3,138,Transformed-Images/Rainbow-Tools/,saw,Transformed-Images/Rainbow-Tools/saw3.jpg,saw,1,576429,1419
5006,3,139,Transformed-Images/Rainbow-Tools/,hammer,Transformed-Images/Rainbow-Tools/hammer5.jpg,hammer,1,577856,989
5006,3,140,Transformed-Images/Rainbow-Tools/,flash,Transformed-Images/Rainbow-Tools/flash1.jpg,flash,1,578854,1224
5006,3,141,Transformed-Images/Rainbow-Tools/,plier,Transformed-Images/Rainbow-Tools/plier3.jpg,plier,1,580087,1446
5006,3,142,Transformed-Images/Rainbow-Tools/,tape,Transformed-Images/Rainbow-Tools/tape3.jpg,tape,1,581541,1039
5006,3,143,Transformed-Images/Rainbow-Tools/,flash,Transformed-Images/Rainbow-Tools/flash5.jpg,flash,1,582588,1074
5006,3,144,Transformed-Images/Rainbow-Tools/,wrench,Transformed-Images/Rainbow-Tools/wrench4.jpg,wrench,1,583670,1097
5006,3,145,Transformed-Images/Rainbow-Tools/,shovel,Transformed-Images/Rainbow-Tools/shovel5.jpg,shovel,1,584775,946
5006,3,146,Transformed-Images/Rainbow-Tools/,scissor,Transformed-Images/Rainbow-Tools/scissor4.jpg,scissor,1,585729,1483
5006,3,147,Transformed-Images/Rainbow-Tools/,scissor,Transformed-Images/Rainbow-Tools/scissor1.jpg,scissor,1,587219,1016
5006,3,148,Transformed-Images/Rainbow-Tools/,wrench,Transformed-Images/Rainbow-Tools/wrench1.jpg,wrench,1,588243,1740
5006,3,149,Transformed-Images/Rainbow-Tools/,hammer,Transformed-Images/Rainbow-Tools/hammer4.jpg,hammer,1,589991,911
5006,3,150,Transformed-Images/Rainbow-Tools/,screw,Transformed-Images/Rainbow-Tools/screw5.jpg,screw,1,590910,1867
5006,3,151,Transformed-Images/Wave-Tools/,saw,Transformed-Images/Wave-Tools/saw5.jpg,saw,1,594130,1709
5006,3,152,Transformed-Images/Wave-Tools/,scissor,Transformed-Images/Wave-Tools/scissor4.jpg,scissor,1,595848,1290
5006,3,153,Transformed-Images/Wave-Tools/,wrench,Transformed-Images/Wave-Tools/wrench1.jpg,wrench,1,597147,2028
5006,3,154,Transformed-Images/Wave-Tools/,wrench,Transformed-Images/Wave-Tools/wrench2.jpg,wrench,1,599183,1224
5006,3,155,Transformed-Images/Wave-Tools/,hammer,Transformed-Images/Wave-Tools/hammer4.jpg,hammer,1,600415,974
5006,3,156,Transformed-Images/Wave-Tools/,saw,Transformed-Images/Wave-Tools/saw4.jpg,saw,1,601397,1538
5006,3,157,Transformed-Images/Wave-Tools/,shovel,Transformed-Images/Wave-Tools/shovel5.jpg,shovel,1,602944,968
5006,3,158,Transformed-Images/Wave-Tools/,screw,Transformed-Images/Wave-Tools/screw5.jpg,screw,1,603921,984
5006,3,159,Transformed-Images/Wave-Tools/,axe,Transformed-Images/Wave-Tools/axe5.jpg,axe,1,604913,1006
5006,3,160,Transformed-Images/Wave-Tools/,tape,Transformed-Images/Wave-Tools/tape1.jpg,tape,1,605927,988
5006,3,161,Transformed-Images/Wave-Tools/,plier,Transformed-Images/Wave-Tools/plier1.jpg,plier,1,606924,1007
5006,3,162,Transformed-Images/Wave-Tools/,hammer,Transformed-Images/Wave-Tools/hammer2.jpg,hammer,1,607939,1113
5006,3,163,Transformed-Images/Wave-Tools/,saw,Transformed-Images/Wave-Tools/saw3.jpg,saw,1,609060,1075
5006,3,164,Transformed-Images/Wave-Tools/,screw,Transformed-Images/Wave-Tools/screw4.jpg,screw,1,610143,1449
5006,3,165,Transformed-Images/Wave-Tools/,scissor,Transformed-Images/Wave-Tools/scissor1.jpg,scissor,1,611600,1113
5006,3,166,Transformed-Images/Wave-Tools/,axe,Transformed-Images/Wave-Tools/axe2.jpg,axe,1,612722,1572
5006,3,167,Transformed-Images/Wave-Tools/,tape,Transformed-Images/Wave-Tools/tape3.jpg,tape,1,614302,1532
5006,3,168,Transformed-Images/Wave-Tools/,flash,Transformed-Images/Wave-Tools/flash1.jpg,flash,1,615843,1314
5006,3,169,Transformed-Images/Wave-Tools/,scissor,Transformed-Images/Wave-Tools/scissor3.jpg,scissor,1,617165,1164
5006,3,170,Transformed-Images/Wave-Tools/,shovel,Transformed-Images/Wave-Tools/shovel2.jpg,shovel,1,618338,1021
5006,3,171,Transformed-Images/Wave-Tools/,axe,Transformed-Images/Wave-Tools/axe3.jpg,axe,1,619368,1046
5006,3,172,Transformed-Images/Wave-Tools/,hammer,Transformed-Images/Wave-Tools/hammer5.jpg,hammer,1,620422,950
5006,3,173,Transformed-Images/Wave-Tools/,screw,Transformed-Images/Wave-Tools/screw3.jpg,screw,1,621380,955
5006,3,174,Transformed-Images/Wave-Tools/,flash,Transformed-Images/Wave-Tools/flash4.jpg,flash,1,622343,1005
5006,3,175,Transformed-Images/Wave-Tools/,shovel,Transformed-Images/Wave-Tools/shovel1.jpg,shovel,1,623356,1035
5006,3,176,Transformed-Images/Wave-Tools/,flash,Transformed-Images/Wave-Tools/flash5.jpg,flash,1,624399,1117
5006,3,177,Transformed-Images/Wave-Tools/,plier,Transformed-Images/Wave-Tools/plier4.jpg,plier,1,625524,1134
5006,3,178,Transformed-Images/Wave-Tools/,plier,Transformed-Images/Wave-Tools/plier3.jpg,plier,1,626667,959
5006,3,179,Transformed-Images/Wave-Tools/,tape,Transformed-Images/Wave-Tools/tape2.jpg,tape,1,627634,1031
5006,3,180,Transformed-Images/Wave-Tools/,wrench,Transformed-Images/Wave-Tools/wrench4.jpg,wrench,1,628674,1011
5006,3,181,Transformed-Images/Frame-Leaves/,saw,Transformed-Images/Frame-Leaves/saw5.jpg,saw,1,631327,1407
5006,3,182,Transformed-Images/Frame-Leaves/,flash,Transformed-Images/Frame-Leaves/flash5.jpg,flash,1,632744,1012
5006,3,183,Transformed-Images/Frame-Leaves/,wrench,Transformed-Images/Frame-Leaves/wrench4.jpg,wrench,1,633766,1119
5006,3,184,Transformed-Images/Frame-Leaves/,tape,Transformed-Images/Frame-Leaves/tape2.jpg,tape,1,634895,1546
5006,3,185,Transformed-Images/Frame-Leaves/,hammer,Transformed-Images/Frame-Leaves/hammer1.jpg,hammer,1,636451,1304
5006,3,186,Transformed-Images/Frame-Leaves/,tape,Transformed-Images/Frame-Leaves/tape3.jpg,tape,1,637765,1603
5006,3,187,Transformed-Images/Frame-Leaves/,hammer,Transformed-Images/Frame-Leaves/hammer2.jpg,hammer,1,639379,967
5006,3,188,Transformed-Images/Frame-Leaves/,tape,Transformed-Images/Frame-Leaves/tape5.jpg,tape,1,640356,1092
5006,3,189,Transformed-Images/Frame-Leaves/,wrench,Transformed-Images/Frame-Leaves/wrench1.jpg,wrench,1,641458,1602
5006,3,190,Transformed-Images/Frame-Leaves/,flash,Transformed-Images/Frame-Leaves/flash3.jpg,flash,1,643070,1029
5006,3,191,Transformed-Images/Frame-Leaves/,plier,Transformed-Images/Frame-Leaves/plier3.jpg,plier,1,644109,1004
5006,3,192,Transformed-Images/Frame-Leaves/,flash,Transformed-Images/Frame-Leaves/flash1.jpg,flash,1,645123,1000
5006,3,193,Transformed-Images/Frame-Leaves/,axe,Transformed-Images/Frame-Leaves/axe4.jpg,axe,1,646133,1559
5006,3,194,Transformed-Images/Frame-Leaves/,screw,Transformed-Images/Frame-Leaves/screw3.jpg,screw,1,647702,1001
5006,3,195,Transformed-Images/Frame-Leaves/,screw,Transformed-Images/Frame-Leaves/screw2.jpg,screw,1,648713,894
5006,3,196,Transformed-Images/Frame-Leaves/,scissor,Transformed-Images/Frame-Leaves/scissor2.jpg,scissor,1,649617,1135
5006,3,197,Transformed-Images/Frame-Leaves/,saw,Transformed-Images/Frame-Leaves/saw2.jpg,saw,1,650762,1003
5006,3,198,Transformed-Images/Frame-Leaves/,hammer,Transformed-Images/Frame-Leaves/hammer4.jpg,hammer,1,651775,1003
5006,3,199,Transformed-Images/Frame-Leaves/,shovel,Transformed-Images/Frame-Leaves/shovel3.jpg,shovel,1,652788,1066
5006,3,200,Transformed-Images/Frame-Leaves/,shovel,Transformed-Images/Frame-Leaves/shovel2.jpg,shovel,1,653864,589
5006,3,201,Transformed-Images/Frame-Leaves/,axe,Transformed-Images/Frame-Leaves/axe1.jpg,axe,1,654463,1324
5006,3,202,Transformed-Images/Frame-Leaves/,axe,Transformed-Images/Frame-Leaves/axe3.jpg,axe,1,655797,798
5006,3,203,Transformed-Images/Frame-Leaves/,wrench,Transformed-Images/Frame-Leaves/wrench3.jpg,wrench,1,656605,998
5006,3,204,Transformed-Images/Frame-Leaves/,plier,Transformed-Images/Frame-Leaves/plier4.jpg,plier,1,657613,1091
5006,3,205,Transformed-Images/Frame-Leaves/,saw,Transformed-Images/Frame-Leaves/saw4.jpg,saw,1,658714,986
5006,3,206,Transformed-Images/Frame-Leaves/,shovel,Transformed-Images/Frame-Leaves/shovel1.jpg,shovel,1,659710,911
5006,3,207,Transformed-Images/Frame-Leaves/,scissor,Transformed-Images/Frame-Leaves/scissor3.jpg,scissor,1,660631,1584
5006,3,208,Transformed-Images/Frame-Leaves/,screw,Transformed-Images/Frame-Leaves/screw5.jpg,screw,1,662225,1053
5006,3,209,Transformed-Images/Frame-Leaves/,scissor,Transformed-Images/Frame-Leaves/scissor1.jpg,scissor,1,663288,1631
5006,3,210,Transformed-Images/Frame-Leaves/,plier,Transformed-Images/Frame-Leaves/plier5.jpg,plier,1,664929,999
8001,1,1,Transformed-Images/Resize/,tape,Transformed-Images/Resize/tape3.jpg,tape,1,638705,5170
8001,1,2,Transformed-Images/Resize/,saw,Transformed-Images/Resize/saw4.jpg,saw,1,643881,3117
8001,1,3,Transformed-Images/Resize/,axe,Transformed-Images/Resize/axe2.jpg,axe,1,647004,2737
8001,1,4,Transformed-Images/Resize/,hammer,Transformed-Images/Resize/hammer3.jpg,hammer,1,649747,1944
8001,1,5,Transformed-Images/Resize/,screw,Transformed-Images/Resize/screw2.jpg,screw,1,651697,1775
8001,1,6,Transformed-Images/Resize/,shovel,Transformed-Images/Resize/shovel3.jpg,shovel,1,653478,2841
8001,1,7,Transformed-Images/Resize/,scissor,Transformed-Images/Resize/scissor4.jpg,scissor,1,656325,3468
8001,1,8,Transformed-Images/Resize/,screw,Transformed-Images/Resize/screw5.jpg,screw,1,659799,1944
8001,1,9,Transformed-Images/Resize/,shovel,Transformed-Images/Resize/shovel2.jpg,shovel,1,661749,1209
8001,1,10,Transformed-Images/Resize/,flash,Transformed-Images/Resize/flash5.jpg,flash,1,662964,1351
8001,1,11,Transformed-Images/Resize/,saw,Transformed-Images/Resize/saw3.jpg,saw,1,664321,2004
8001,1,12,Transformed-Images/Resize/,plier,Transformed-Images/Resize/plier2.jpg,plier,1,666331,2455
8001,1,13,Transformed-Images/Resize/,axe,Transformed-Images/Resize/axe1.jpg,axe,1,668792,1452
8001,1,14,Transformed-Images/Resize/,tape,Transformed-Images/Resize/tape4.jpg,tape,1,670250,1183
8001,1,15,Transformed-Images/Resize/,wrench,Transformed-Images/Resize/wrench5.jpg,wrench,1,671439,1229
8001,1,16,Transformed-Images/Resize/,hammer,Transformed-Images/Resize/hammer5.jpg,hammer,1,672675,1497
8001,1,17,Transformed-Images/Resize/,wrench,Transformed-Images/Resize/wrench2.jpg,wrench,1,674178,1681
8001,1,18,Transformed-Images/Resize/,flash,Transformed-Images/Resize/flash3.jpg,flash,1,675865,1442
8001,1,19,Transformed-Images/Resize/,scissor,Transformed-Images/Resize/scissor3.jpg,scissor,1,677313,1342
8001,1,20,Transformed-Images/Resize/,tape,Transformed-Images/Resize/tape1.jpg,tape,1,678661,1395
8001,1,21,Transformed-Images/Resize/,shovel,Transformed-Images/Resize/shovel1.jpg,shovel,1,680062,1399
8001,1,22,Transformed-Images/Resize/,axe,Transformed-Images/Resize/axe4.jpg,axe,1,681467,1320
8001,1,23,Transformed-Images/Resize/,plier,Transformed-Images/Resize/plier4.jpg,plier,1,682793,2344
8001,1,24,Transformed-Images/Resize/,plier,Transformed-Images/Resize/plier3.jpg,plier,1,685143,1330
8001,1,25,Transformed-Images/Resize/,wrench,Transformed-Images/Resize/wrench4.jpg,wrench,1,686479,1357
8001,1,26,Transformed-Images/Resize/,screw,Transformed-Images/Resize/screw4.jpg,screw,1,687842,1236
8001,1,27,Transformed-Images/Resize/,hammer,Transformed-Images/Resize/hammer2.jpg,hammer,1,689084,1070
8001,1,28,Transformed-Images/Resize/,flash,Transformed-Images/Resize/flash2.jpg,flash,1,690160,1098
8001,1,29,Transformed-Images/Resize/,saw,Transformed-Images/Resize/saw1.jpg,saw,1,691264,1300
8001,1,30,Transformed-Images/Resize/,scissor,Transformed-Images/Resize/scissor5.jpg,scissor,1,692569,1565
8001,1,31,Transformed-Images/BW-Tools/,flash,Transformed-Images/BW-Tools/flash5.jpg,flash,1,697943,1955
8001,1,32,Transformed-Images/BW-Tools/,shovel,Transformed-Images/BW-Tools/shovel5.jpg,shovel,1,699905,860
8001,1,33,Transformed-Images/BW-Tools/,hammer,Transformed-Images/BW-Tools/hammer5.jpg,hammer,1,700771,1006
8001,1,34,Transformed-Images/BW-Tools/,tape,Transformed-Images/BW-Tools/tape2.jpg,tape,1,701783,1112
8001,1,35,Transformed-Images/BW-Tools/,wrench,Transformed-Images/BW-Tools/wrench5.jpg,wrench,1,702902,933
8001,1,36,Transformed-Images/BW-Tools/,tape,Transformed-Images/BW-Tools/tape5.jpg,tape,1,703841,1638
8001,1,37,Transformed-Images/BW-Tools/,plier,Transformed-Images/BW-Tools/plier5.jpg,plier,1,705486,1761
8001,1,38,Transformed-Images/BW-Tools/,saw,Transformed-Images/BW-Tools/saw4.jpg,saw,1,707254,1165
8001,1,39,Transformed-Images/BW-Tools/,scissor,Transformed-Images/BW-Tools/scissor5.jpg,wrench,0,708425,2913
8001,1,40,Transformed-Images/BW-Tools/,plier,Transformed-Images/BW-Tools/plier1.jpg,plier,1,711345,1518
8001,1,41,Transformed-Images/BW-Tools/,axe,Transformed-Images/BW-Tools/axe5.jpg,axe,1,712870,1540
8001,1,42,Transformed-Images/BW-Tools/,screw,Transformed-Images/BW-Tools/screw4.jpg,screw,1,714416,1125
8001,1,43,Transformed-Images/BW-Tools/,axe,Transformed-Images/BW-Tools/axe2.jpg,axe,1,715547,1599
8001,1,44,Transformed-Images/BW-Tools/,hammer,Transformed-Images/BW-Tools/hammer2.jpg,hammer,1,717153,1103
8001,1,45,Transformed-Images/BW-Tools/,wrench,Transformed-Images/BW-Tools/wrench2.jpg,wrench,1,718263,2051
8001,1,46,Transformed-Images/BW-Tools/,saw,Transformed-Images/BW-Tools/saw1.jpg,saw,1,720321,1250
8001,1,47,Transformed-Images/BW-Tools/,tape,Transformed-Images/BW-Tools/tape4.jpg,tape,1,721578,963
8001,1,48,Transformed-Images/BW-Tools/,scissor,Transformed-Images/BW-Tools/scissor2.jpg,scissor,1,722548,1105
8001,1,49,Transformed-Images/BW-Tools/,plier,Transformed-Images/BW-Tools/plier3.jpg,plier,1,723659,1027
8001,1,50,Transformed-Images/BW-Tools/,flash,Transformed-Images/BW-Tools/flash4.jpg,flash,1,724693,1203
8001,1,51,Transformed-Images/BW-Tools/,screw,Transformed-Images/BW-Tools/screw5.jpg,screw,1,725903,1021
8001,1,52,Transformed-Images/BW-Tools/,flash,Transformed-Images/BW-Tools/flash2.jpg,flash,1,726930,1030
8001,1,53,Transformed-Images/BW-Tools/,shovel,Transformed-Images/BW-Tools/shovel4.jpg,shovel,1,727967,1540
8001,1,54,Transformed-Images/BW-Tools/,screw,Transformed-Images/BW-Tools/screw1.jpg,screw,1,729513,1955
8001,1,55,Transformed-Images/BW-Tools/,shovel,Transformed-Images/BW-Tools/shovel3.jpg,shovel,1,731474,1127
8001,1,56,Transformed-Images/BW-Tools/,axe,Transformed-Images/BW-Tools/axe4.jpg,axe,1,732605,1836
8001,1,57,Transformed-Images/BW-Tools/,hammer,Transformed-Images/BW-Tools/hammer3.jpg,hammer,1,734448,1487
8001,1,58,Transformed-Images/BW-Tools/,wrench,Transformed-Images/BW-Tools/wrench3.jpg,wrench,1,735942,1035
8001,1,59,Transformed-Images/BW-Tools/,scissor,Transformed-Images/BW-Tools/scissor4.jpg,scissor,1,736984,1820
8001,1,60,Transformed-Images/BW-Tools/,saw,Transformed-Images/BW-Tools/saw3.jpg,saw,1,738810,1279
8001,1,61,Transformed-Images/Edge-White-Tools/,plier,Transformed-Images/Edge-White-Tools/plier1.jpg,plier,1,742664,2182
8001,1,62,Transformed-Images/Edge-White-Tools/,flash,Transformed-Images/Edge-White-Tools/flash2.jpg,flash,1,744852,1139
8001,1,63,Transformed-Images/Edge-White-Tools/,shovel,Transformed-Images/Edge-White-Tools/shovel5.jpg,shovel,1,745998,836
8001,1,64,Transformed-Images/Edge-White-Tools/,flash,Transformed-Images/Edge-White-Tools/flash3.jpg,flash,1,746841,1246
8001,1,65,Transformed-Images/Edge-White-Tools/,saw,Transformed-Images/Edge-White-Tools/saw2.jpg,saw,1,748094,1059
8001,1,66,Transformed-Images/Edge-White-Tools/,flash,Transformed-Images/Edge-White-Tools/flash1.jpg,flash,1,749160,895
8001,1,67,Transformed-Images/Edge-White-Tools/,wrench,Transformed-Images/Edge-White-Tools/wrench4.jpg,wrench,1,750062,962
8001,1,68,Transformed-Images/Edge-White-Tools/,hammer,Transformed-Images/Edge-White-Tools/hammer2.jpg,hammer,1,751031,1360
8001,1,69,Transformed-Images/Edge-White-Tools/,saw,Transformed-Images/Edge-White-Tools/saw1.jpg,saw,1,752397,2427
8001,1,70,Transformed-Images/Edge-White-Tools/,axe,Transformed-Images/Edge-White-Tools/axe2.jpg,axe,1,754831,1520
8001,1,71,Transformed-Images/Edge-White-Tools/,saw,Transformed-Images/Edge-White-Tools/saw3.jpg,saw,1,756358,994
8001,1,72,Transformed-Images/Edge-White-Tools/,scissor,Transformed-Images/Edge-White-Tools/scissor3.jpg,scissor,1,757359,1620
8001,1,73,Transformed-Images/Edge-White-Tools/,scissor,Transformed-Images/Edge-White-Tools/scissor2.jpg,scissor,1,758986,1521
8001,1,74,Transformed-Images/Edge-White-Tools/,plier,Transformed-Images/Edge-White-Tools/plier5.jpg,plier,1,760514,4651
8001,1,75,Transformed-Images/Edge-White-Tools/,wrench,Transformed-Images/Edge-White-Tools/wrench5.jpg,wrench,1,765171,1101
8001,1,76,Transformed-Images/Edge-White-Tools/,tape,Transformed-Images/Edge-White-Tools/tape1.jpg,tape,1,766278,950
8001,1,77,Transformed-Images/Edge-White-Tools/,screw,Transformed-Images/Edge-White-Tools/screw3.jpg,screw,1,767235,1023
8001,1,78,Transformed-Images/Edge-White-Tools/,screw,Transformed-Images/Edge-White-Tools/screw2.jpg,screw,1,768265,1536
8001,1,79,Transformed-Images/Edge-White-Tools/,axe,Transformed-Images/Edge-White-Tools/axe1.jpg,axe,1,769808,1503
8001,1,80,Transformed-Images/Edge-White-Tools/,shovel,Transformed-Images/Edge-White-Tools/shovel4.jpg,shovel,1,771317,963
8001,1,81,Transformed-Images/Edge-White-Tools/,hammer,Transformed-Images/Edge-White-Tools/hammer5.jpg,hammer,1,772287,814
8001,1,82,Transformed-Images/Edge-White-Tools/,scissor,Transformed-Images/Edge-White-Tools/scissor5.jpg,scissor,1,773107,1127
8001,1,83,Transformed-Images/Edge-White-Tools/,shovel,Transformed-Images/Edge-White-Tools/shovel1.jpg,shovel,1,774241,1136
8001,1,84,Transformed-Images/Edge-White-Tools/,axe,Transformed-Images/Edge-White-Tools/axe3.jpg,saw,0,775383,6001
8001,1,85,Transformed-Images/Edge-White-Tools/,wrench,Transformed-Images/Edge-White-Tools/wrench3.jpg,wrench,1,781390,1177
8001,1,86,Transformed-Images/Edge-White-Tools/,tape,Transformed-Images/Edge-White-Tools/tape2.jpg,tape,1,782573,1158
8001,1,87,Transformed-Images/Edge-White-Tools/,tape,Transformed-Images/Edge-White-Tools/tape4.jpg,tape,1,783738,912
8001,1,88,Transformed-Images/Edge-White-Tools/,screw,Transformed-Images/Edge-White-Tools/screw4.jpg,screw,1,784657,1560
8001,1,89,Transformed-Images/Edge-White-Tools/,plier,Transformed-Images/Edge-White-Tools/plier2.jpg,plier,1,786223,2452
8001,1,90,Transformed-Images/Edge-White-Tools/,hammer,Transformed-Images/Edge-White-Tools/hammer3.jpg,hammer,1,788682,1106
8001,1,91,Transformed-Images/Charcol-Tools/,wrench,Transformed-Images/Charcol-Tools/wrench4.jpg,wrench,1,791202,1796
8001,1,92,Transformed-Images/Charcol-Tools/,wrench,Transformed-Images/Charcol-Tools/wrench2.jpg,wrench,1,793005,1329
8001,1,93,Transformed-Images/Charcol-Tools/,axe,Transformed-Images/Charcol-Tools/axe2.jpg,axe,1,794340,898
8001,1,94,Transformed-Images/Charcol-Tools/,plier,Transformed-Images/Charcol-Tools/plier3.jpg,plier,1,795244,1071
8001,1,95,Transformed-Images/Charcol-Tools/,plier,Transformed-Images/Charcol-Tools/plier1.jpg,plier,1,796322,1753
8001,1,96,Transformed-Images/Charcol-Tools/,screw,Transformed-Images/Charcol-Tools/screw1.jpg,screw,1,798082,1119
8001,1,97,Transformed-Images/Charcol-Tools/,flash,Transformed-Images/Charcol-Tools/flash5.jpg,flash,1,799207,1229
8001,1,98,Transformed-Images/Charcol-Tools/,saw,Transformed-Images/Charcol-Tools/saw5.jpg,saw,1,800443,995
8001,1,99,Transformed-Images/Charcol-Tools/,shovel,Transformed-Images/Charcol-Tools/shovel2.jpg,shovel,1,801445,1674
8001,1,100,Transformed-Images/Charcol-Tools/,hammer,Transformed-Images/Charcol-Tools/hammer1.jpg,hammer,1,803125,3118
8001,1,101,Transformed-Images/Charcol-Tools/,axe,Transformed-Images/Charcol-Tools/axe4.jpg,axe,1,806250,1243
8001,1,102,Transformed-Images/Charcol-Tools/,screw,Transformed-Images/Charcol-Tools/screw2.jpg,screw,1,807499,1389
8001,1,103,Transformed-Images/Charcol-Tools/,screw,Transformed-Images/Charcol-Tools/screw4.jpg,screw,1,808894,1130
8001,1,104,Transformed-Images/Charcol-Tools/,plier,Transformed-Images/Charcol-Tools/plier4.jpg,plier,1,810030,900
8001,1,105,Transformed-Images/Charcol-Tools/,scissor,Transformed-Images/Charcol-Tools/scissor4.jpg,scissor,1,810937,1000
8001,1,106,Transformed-Images/Charcol-Tools/,flash,Transformed-Images/Charcol-Tools/flash1.jpg,flash,1,811943,1085
8001,1,107,Transformed-Images/Charcol-Tools/,saw,Transformed-Images/Charcol-Tools/saw3.jpg,saw,1,813035,1531
8001,1,108,Transformed-Images/Charcol-Tools/,tape,Transformed-Images/Charcol-Tools/tape2.jpg,tape,1,814573,1228
8001,1,109,Transformed-Images/Charcol-Tools/,saw,Transformed-Images/Charcol-Tools/saw1.jpg,saw,1,815807,1622
8001,1,110,Transformed-Images/Charcol-Tools/,wrench,Transformed-Images/Charcol-Tools/wrench1.jpg,wrench,1,817436,1440
8001,1,111,Transformed-Images/Charcol-Tools/,shovel,Transformed-Images/Charcol-Tools/shovel4.jpg,shovel,1,818883,987
8001,1,112,Transformed-Images/Charcol-Tools/,tape,Transformed-Images/Charcol-Tools/tape4.jpg,tape,1,819877,884
8001,1,113,Transformed-Images/Charcol-Tools/,tape,Transformed-Images/Charcol-Tools/tape5.jpg,tape,1,820767,1482
8001,1,114,Transformed-Images/Charcol-Tools/,shovel,Transformed-Images/Charcol-Tools/shovel3.jpg,shovel,1,822255,1023
8001,1,115,Transformed-Images/Charcol-Tools/,axe,Transformed-Images/Charcol-Tools/axe1.jpg,axe,1,823285,1671
8001,1,116,Transformed-Images/Charcol-Tools/,flash,Transformed-Images/Charcol-Tools/flash3.jpg,flash,1,824963,1401
8001,1,117,Transformed-Images/Charcol-Tools/,hammer,Transformed-Images/Charcol-Tools/hammer3.jpg,hammer,1,826371,1160
8001,1,118,Transformed-Images/Charcol-Tools/,scissor,Transformed-Images/Charcol-Tools/scissor5.jpg,scissor,1,827537,1607
8001,1,119,Transformed-Images/Charcol-Tools/,hammer,Transformed-Images/Charcol-Tools/hammer4.jpg,hammer,1,829150,2268
8001,1,120,Transformed-Images/Charcol-Tools/,scissor,Transformed-Images/Charcol-Tools/scissor1.jpg,scissor,1,831424,1287
8001,1,121,Transformed-Images/Implode-Tools/,shovel,Transformed-Images/Implode-Tools/shovel4.jpg,shovel,1,833991,1470
8001,1,122,Transformed-Images/Implode-Tools/,plier,Transformed-Images/Implode-Tools/plier3.jpg,plier,1,835469,1797
8001,1,123,Transformed-Images/Implode-Tools/,scissor,Transformed-Images/Implode-Tools/scissor4.jpg,scissor,1,837273,1406
8001,1,124,Transformed-Images/Implode-Tools/,wrench,Transformed-Images/Implode-Tools/wrench3.jpg,wrench,1,838687,1053
8001,1,125,Transformed-Images/Implode-Tools/,shovel,Transformed-Images/Implode-Tools/shovel1.jpg,shovel,1,839747,1258
8001,1,126,Transformed-Images/Implode-Tools/,axe,Transformed-Images/Implode-Tools/axe4.jpg,axe,1,841013,1847
8001,1,127,Transformed-Images/Implode-Tools/,wrench,Transformed-Images/Implode-Tools/wrench2.jpg,wrench,1,842867,889
8001,1,128,Transformed-Images/Implode-Tools/,tape,Transformed-Images/Implode-Tools/tape5.jpg,tape,1,843763,1180
8001,1,129,Transformed-Images/Implode-Tools/,scissor,Transformed-Images/Implode-Tools/scissor1.jpg,scissor,1,844949,954
8001,1,130,Transformed-Images/Implode-Tools/,tape,Transformed-Images/Implode-Tools/tape2.jpg,tape,1,845910,985
8001,1,131,Transformed-Images/Implode-Tools/,flash,Transformed-Images/Implode-Tools/flash5.jpg,flash,1,846903,1075
8001,1,132,Transformed-Images/Implode-Tools/,screw,Transformed-Images/Implode-Tools/screw3.jpg,screw,1,847985,1620
8001,1,133,Transformed-Images/Implode-Tools/,hammer,Transformed-Images/Implode-Tools/hammer3.jpg,hammer,1,849613,1036
8001,1,134,Transformed-Images/Implode-Tools/,flash,Transformed-Images/Implode-Tools/flash2.jpg,flash,1,850656,1226
8001,1,135,Transformed-Images/Implode-Tools/,saw,Transformed-Images/Implode-Tools/saw2.jpg,saw,1,851889,1403
8001,1,136,Transformed-Images/Implode-Tools/,wrench,Transformed-Images/Implode-Tools/wrench1.jpg,wrench,1,853299,2352
8001,1,137,Transformed-Images/Implode-Tools/,saw,Transformed-Images/Implode-Tools/saw3.jpg,saw,1,855658,1730
8001,1,138,Transformed-Images/Implode-Tools/,axe,Transformed-Images/Implode-Tools/axe3.jpg,axe,1,857395,1176
8001,1,139,Transformed-Images/Implode-Tools/,hammer,Transformed-Images/Implode-Tools/hammer2.jpg,hammer,1,858578,1303
8001,1,140,Transformed-Images/Implode-Tools/,scissor,Transformed-Images/Implode-Tools/scissor5.jpg,scissor,1,859888,2005
8001,1,141,Transformed-Images/Implode-Tools/,hammer,Transformed-Images/Implode-Tools/hammer5.jpg,hammer,1,861901,1331
8001,1,142,Transformed-Images/Implode-Tools/,saw,Transformed-Images/Implode-Tools/saw1.jpg,saw,1,863240,1755
8001,1,143,Transformed-Images/Implode-Tools/,plier,Transformed-Images/Implode-Tools/plier2.jpg,plier,1,865002,1709
8001,1,144,Transformed-Images/Implode-Tools/,flash,Transformed-Images/Implode-Tools/flash3.jpg,flash,1,866719,1370
8001,1,145,Transformed-Images/Implode-Tools/,tape,Transformed-Images/Implode-Tools/tape1.jpg,tape,1,868097,2181
8001,1,146,Transformed-Images/Implode-Tools/,shovel,Transformed-Images/Implode-Tools/shovel3.jpg,shovel,1,870286,1535
8001,1,147,Transformed-Images/Implode-Tools/,plier,Transformed-Images/Implode-Tools/plier1.jpg,plier,1,871828,1692
8001,1,148,Transformed-Images/Implode-Tools/,screw,Transformed-Images/Implode-Tools/screw2.jpg,screw,1,873528,1293
8001,1,149,Transformed-Images/Implode-Tools/,screw,Transformed-Images/Implode-Tools/screw5.jpg,screw,1,874828,1305
8001,1,150,Transformed-Images/Implode-Tools/,axe,Transformed-Images/Implode-Tools/axe2.jpg,axe,1,876140,1134
8001,1,151,Transformed-Images/Original-Tools/,screw,Transformed-Images/Original-Tools/screw4.jpg,screw,1,879139,1777
8001,1,152,Transformed-Images/Original-Tools/,plier,Transformed-Images/Original-Tools/plier4.jpg,plier,1,880923,2251
8001,1,153,Transformed-Images/Original-Tools/,saw,Transformed-Images/Original-Tools/saw5.jpg,saw,1,883182,1036
8001,1,154,Transformed-Images/Original-Tools/,tape,Transformed-Images/Original-Tools/tape1.jpg,tape,1,884225,1621
8001,1,155,Transformed-Images/Original-Tools/,hammer,Transformed-Images/Original-Tools/hammer2.jpg,hammer,1,885853,938
8001,1,156,Transformed-Images/Original-Tools/,wrench,Transformed-Images/Original-Tools/wrench5.jpg,wrench,1,886799,1242
8001,1,157,Transformed-Images/Original-Tools/,saw,Transformed-Images/Original-Tools/saw1.jpg,saw,1,888049,1609
8001,1,158,Transformed-Images/Original-Tools/,wrench,Transformed-Images/Original-Tools/wrench2.jpg,wrench,1,889666,1511
8001,1,159,Transformed-Images/Original-Tools/,shovel,Transformed-Images/Original-Tools/shovel3.jpg,shovel,1,891185,858
8001,1,160,Transformed-Images/Original-Tools/,hammer,Transformed-Images/Original-Tools/hammer4.jpg,hammer,1,892050,980
8001,1,161,Transformed-Images/Original-Tools/,scissor,Transformed-Images/Original-Tools/scissor4.jpg,scissor,1,893038,1734
8001,1,162,Transformed-Images/Original-Tools/,saw,Transformed-Images/Original-Tools/saw4.jpg,saw,1,894779,1942
8001,1,163,Transformed-Images/Original-Tools/,screw,Transformed-Images/Original-Tools/screw2.jpg,screw,1,896729,1218
8001,1,164,Transformed-Images/Original-Tools/,axe,Transformed-Images/Original-Tools/axe2.jpg,axe,1,897954,1958
8001,1,165,Transformed-Images/Original-Tools/,plier,Transformed-Images/Original-Tools/plier2.jpg,plier,1,899920,982
8001,1,166,Transformed-Images/Original-Tools/,axe,Transformed-Images/Original-Tools/axe1.jpg,hammer,0,900909,1113
8001,1,167,Transformed-Images/Original-Tools/,tape,Transformed-Images/Original-Tools/tape3.jpg,tape,1,902030,904
8001,1,168,Transformed-Images/Original-Tools/,shovel,Transformed-Images/Original-Tools/shovel1.jpg,shovel,1,902941,869
8001,1,169,Transformed-Images/Original-Tools/,wrench,Transformed-Images/Original-Tools/wrench3.jpg,wrench,1,903818,1454
8001,1,170,Transformed-Images/Original-Tools/,flash,Transformed-Images/Original-Tools/flash1.jpg,flash,1,905280,988
8001,1,171,Transformed-Images/Original-Tools/,shovel,Transformed-Images/Original-Tools/shovel2.jpg,shovel,1,906273,1865
8001,1,172,Transformed-Images/Original-Tools/,plier,Transformed-Images/Original-Tools/plier1.jpg,plier,1,908146,867
8001,1,173,Transformed-Images/Original-Tools/,tape,Transformed-Images/Original-Tools/tape2.jpg,tape,1,909020,1632
8001,1,174,Transformed-Images/Original-Tools/,flash,Transformed-Images/Original-Tools/flash4.jpg,flash,1,910659,1347
8001,1,175,Transformed-Images/Original-Tools/,scissor,Transformed-Images/Original-Tools/scissor1.jpg,scissor,1,912013,2622
8001,1,176,Transformed-Images/Original-Tools/,hammer,Transformed-Images/Original-Tools/hammer3.jpg,hammer,1,914643,1467
8001,1,177,Transformed-Images/Original-Tools/,axe,Transformed-Images/Original-Tools/axe3.jpg,axe,1,916117,1394
8001,1,178,Transformed-Images/Original-Tools/,screw,Transformed-Images/Original-Tools/screw5.jpg,screw,1,917519,2523
8001,1,179,Transformed-Images/Original-Tools/,scissor,Transformed-Images/Original-Tools/scissor2.jpg,scissor,1,920050,1218
8001,1,180,Transformed-Images/Original-Tools/,flash,Transformed-Images/Original-Tools/flash2.jpg,flash,1,921276,1131
8001,2,1,Transformed-Images/Original-Tools/,saw,Transformed-Images/Original-Tools/saw1.jpg,saw,1,357894,1188
8001,2,2,Transformed-Images/Original-Tools/,plier,Transformed-Images/Original-Tools/plier5.jpg,plier,1,359090,2452
8001,2,3,Transformed-Images/Original-Tools/,plier,Transformed-Images/Original-Tools/plier4.jpg,plier,1,361549,1009
8001,2,4,Transformed-Images/Original-Tools/,screw,Transformed-Images/Original-Tools/screw1.jpg,screw,1,362565,902
8001,2,5,Transformed-Images/Original-Tools/,wrench,Transformed-Images/Original-Tools/wrench4.jpg,wrench,1,363475,1390
8001,2,6,Transformed-Images/Original-Tools/,hammer,Transformed-Images/Original-Tools/hammer1.jpg,hammer,1,364872,1583
8001,2,7,Transformed-Images/Original-Tools/,wrench,Transformed-Images/Original-Tools/wrench1.jpg,wrench,1,366462,1331
8001,2,8,Transformed-Images/Original-Tools/,wrench,Transformed-Images/Original-Tools/wrench5.jpg,wrench,1,367801,1112
8001,2,9,Transformed-Images/Original-Tools/,axe,Transformed-Images/Original-Tools/axe1.jpg,axe,1,368920,2321
8001,2,10,Transformed-Images/Original-Tools/,screw,Transformed-Images/Original-Tools/screw5.jpg,screw,1,371248,995
8001,2,11,Transformed-Images/Original-Tools/,tape,Transformed-Images/Original-Tools/tape3.jpg,tape,1,372251,1146
8001,2,12,Transformed-Images/Original-Tools/,hammer,Transformed-Images/Original-Tools/hammer2.jpg,hammer,1,373405,2129
8001,2,13,Transformed-Images/Original-Tools/,shovel,Transformed-Images/Original-Tools/shovel5.jpg,shovel,1,375541,1061
8001,2,14,Transformed-Images/Original-Tools/,axe,Transformed-Images/Original-Tools/axe3.jpg,axe,1,376609,1607
8001,2,15,Transformed-Images/Original-Tools/,tape,Transformed-Images/Original-Tools/tape4.jpg,tape,1,378223,1738
8001,2,16,Transformed-Images/Original-Tools/,saw,Transformed-Images/Original-Tools/saw3.jpg,saw,1,379965,2724
8001,2,17,Transformed-Images/Original-Tools/,flash,Transformed-Images/Original-Tools/flash4.jpg,flash,1,382696,1375
8001,2,18,Transformed-Images/Original-Tools/,shovel,Transformed-Images/Original-Tools/shovel4.jpg,shovel,1,384078,1108
8001,2,19,Transformed-Images/Original-Tools/,scissor,Transformed-Images/Original-Tools/scissor2.jpg,scissor,1,385193,1218
8001,2,20,Transformed-Images/Original-Tools/,screw,Transformed-Images/Original-Tools/screw4.jpg,screw,1,386419,1216
8001,2,21,Transformed-Images/Original-Tools/,plier,Transformed-Images/Original-Tools/plier3.jpg,plier,1,387642,1283
8001,2,22,Transformed-Images/Original-Tools/,tape,Transformed-Images/Original-Tools/tape1.jpg,tape,1,388933,1047
8001,2,23,Transformed-Images/Original-Tools/,axe,Transformed-Images/Original-Tools/axe2.jpg,axe,1,389988,1811
8001,2,24,Transformed-Images/Original-Tools/,flash,Transformed-Images/Original-Tools/flash3.jpg,flash,1,391806,1440
8001,2,25,Transformed-Images/Original-Tools/,shovel,Transformed-Images/Original-Tools/shovel1.jpg,shovel,1,393254,1835
8001,2,26,Transformed-Images/Original-Tools/,scissor,Transformed-Images/Original-Tools/scissor4.jpg,scissor,1,395096,1187
8001,2,27,Transformed-Images/Original-Tools/,scissor,Transformed-Images/Original-Tools/scissor1.jpg,scissor,1,396289,2402
8001,2,28,Transformed-Images/Original-Tools/,flash,Transformed-Images/Original-Tools/flash1.jpg,flash,1,398698,1292
8001,2,29,Transformed-Images/Original-Tools/,saw,Transformed-Images/Original-Tools/saw5.jpg,saw,1,399997,1035
8001,2,30,Transformed-Images/Original-Tools/,hammer,Transformed-Images/Original-Tools/hammer4.jpg,hammer,1,401039,1023
8001,2,31,Transformed-Images/Blur-Tools/,hammer,Transformed-Images/Blur-Tools/hammer3.jpg,hammer,1,403711,2045
8001,2,32,Transformed-Images/Blur-Tools/,scissor,Transformed-Images/Blur-Tools/scissor4.jpg,scissor,1,405764,966
8001,2,33,Transformed-Images/Blur-Tools/,flash,Transformed-Images/Blur-Tools/flash4.jpg,flash,1,406736,933
8001,2,34,Transformed-Images/Blur-Tools/,axe,Transformed-Images/Blur-Tools/axe5.jpg,axe,1,407677,1577
8001,2,35,Transformed-Images/Blur-Tools/,wrench,Transformed-Images/Blur-Tools/wrench5.jpg,wrench,1,409261,1425
8001,2,36,Transformed-Images/Blur-Tools/,screw,Transformed-Images/Blur-Tools/screw5.jpg,screw,1,410694,1131
8001,2,37,Transformed-Images/Blur-Tools/,plier,Transformed-Images/Blur-Tools/plier5.jpg,plier,1,411832,1075
8001,2,38,Transformed-Images/Blur-Tools/,saw,Transformed-Images/Blur-Tools/saw3.jpg,saw,1,412915,1796
8001,2,39,Transformed-Images/Blur-Tools/,scissor,Transformed-Images/Blur-Tools/scissor2.jpg,scissor,1,414718,1740
8001,2,40,Transformed-Images/Blur-Tools/,axe,Transformed-Images/Blur-Tools/axe1.jpg,axe,1,416465,2477
8001,2,41,Transformed-Images/Blur-Tools/,hammer,Transformed-Images/Blur-Tools/hammer5.jpg,hammer,1,418949,1351
8001,2,42,Transformed-Images/Blur-Tools/,shovel,Transformed-Images/Blur-Tools/shovel2.jpg,shovel,1,420308,1435
8001,2,43,Transformed-Images/Blur-Tools/,wrench,Transformed-Images/Blur-Tools/wrench2.jpg,wrench,1,421750,1095
8001,2,44,Transformed-Images/Blur-Tools/,plier,Transformed-Images/Blur-Tools/plier3.jpg,plier,1,422853,1254
8001,2,45,Transformed-Images/Blur-Tools/,saw,Transformed-Images/Blur-Tools/saw1.jpg,saw,1,424114,932
8001,2,46,Transformed-Images/Blur-Tools/,tape,Transformed-Images/Blur-Tools/tape2.jpg,tape,1,425054,1236
8001,2,47,Transformed-Images/Blur-Tools/,tape,Transformed-Images/Blur-Tools/tape1.jpg,tape,1,426297,1273
8001,2,48,Transformed-Images/Blur-Tools/,flash,Transformed-Images/Blur-Tools/flash1.jpg,flash,1,427577,1275
8001,2,49,Transformed-Images/Blur-Tools/,tape,Transformed-Images/Blur-Tools/tape4.jpg,tape,1,428863,1923
8001,2,50,Transformed-Images/Blur-Tools/,saw,Transformed-Images/Blur-Tools/saw2.jpg,saw,1,430793,1029
8001,2,51,Transformed-Images/Blur-Tools/,hammer,Transformed-Images/Blur-Tools/hammer1.jpg,hammer,1,431830,1094
8001,2,52,Transformed-Images/Blur-Tools/,shovel,Transformed-Images/Blur-Tools/shovel3.jpg,shovel,1,432931,956
8001,2,53,Transformed-Images/Blur-Tools/,flash,Transformed-Images/Blur-Tools/flash3.jpg,flash,1,433895,982
8001,2,54,Transformed-Images/Blur-Tools/,scissor,Transformed-Images/Blur-Tools/scissor3.jpg,scissor,1,434884,1262
8001,2,55,Transformed-Images/Blur-Tools/,screw,Transformed-Images/Blur-Tools/screw3.jpg,screw,1,436153,1334
8001,2,56,Transformed-Images/Blur-Tools/,plier,Transformed-Images/Blur-Tools/plier4.jpg,plier,1,437495,1643
8001,2,57,Transformed-Images/Blur-Tools/,shovel,Transformed-Images/Blur-Tools/shovel5.jpg,shovel,1,439145,1261
8001,2,58,Transformed-Images/Blur-Tools/,axe,Transformed-Images/Blur-Tools/axe2.jpg,axe,1,440414,2463
8001,2,59,Transformed-Images/Blur-Tools/,wrench,Transformed-Images/Blur-Tools/wrench1.jpg,wrench,1,442884,1841
8001,2,60,Transformed-Images/Blur-Tools/,screw,Transformed-Images/Blur-Tools/screw1.jpg,screw,1,444732,1211
8001,2,61,Transformed-Images/Splice/,shovel,Transformed-Images/Splice/shovel5.jpg,shovel,1,447301,2113
8001,2,62,Transformed-Images/Splice/,tape,Transformed-Images/Splice/tape4.jpg,tape,1,449422,1979
8001,2,63,Transformed-Images/Splice/,saw,Transformed-Images/Splice/saw1.jpg,saw,1,451409,892
8001,2,64,Transformed-Images/Splice/,scissor,Transformed-Images/Splice/scissor3.jpg,scissor,1,452309,1562
8001,2,65,Transformed-Images/Splice/,screw,Transformed-Images/Splice/screw3.jpg,screw,1,453879,1327
8001,2,66,Transformed-Images/Splice/,axe,Transformed-Images/Splice/axe5.jpg,axe,1,455214,1222
8001,2,67,Transformed-Images/Splice/,hammer,Transformed-Images/Splice/hammer2.jpg,hammer,1,456444,1686
8001,2,68,Transformed-Images/Splice/,tape,Transformed-Images/Splice/tape1.jpg,tape,1,458138,1022
8001,2,69,Transformed-Images/Splice/,hammer,Transformed-Images/Splice/hammer5.jpg,hammer,1,459168,1226
8001,2,70,Transformed-Images/Splice/,scissor,Transformed-Images/Splice/scissor2.jpg,scissor,1,460402,1245
8001,2,71,Transformed-Images/Splice/,wrench,Transformed-Images/Splice/wrench2.jpg,wrench,1,461655,1053
8001,2,72,Transformed-Images/Splice/,plier,Transformed-Images/Splice/plier4.jpg,plier,1,462716,1837
8001,2,73,Transformed-Images/Splice/,wrench,Transformed-Images/Splice/wrench3.jpg,wrench,1,464561,1779
8001,2,74,Transformed-Images/Splice/,tape,Transformed-Images/Splice/tape3.jpg,tape,1,466348,1252
8001,2,75,Transformed-Images/Splice/,axe,Transformed-Images/Splice/axe1.jpg,axe,1,467608,1955
8001,2,76,Transformed-Images/Splice/,shovel,Transformed-Images/Splice/shovel4.jpg,shovel,1,469571,1146
8001,2,77,Transformed-Images/Splice/,flash,Transformed-Images/Splice/flash5.jpg,flash,1,470725,1141
8001,2,78,Transformed-Images/Splice/,shovel,Transformed-Images/Splice/shovel2.jpg,shovel,1,471874,2011
8001,2,79,Transformed-Images/Splice/,scissor,Transformed-Images/Splice/scissor1.jpg,scissor,1,473892,2411
8001,2,80,Transformed-Images/Splice/,saw,Transformed-Images/Splice/saw5.jpg,saw,1,476311,1469
8001,2,81,Transformed-Images/Splice/,hammer,Transformed-Images/Splice/hammer1.jpg,hammer,1,477788,1197
8001,2,82,Transformed-Images/Splice/,plier,Transformed-Images/Splice/plier3.jpg,plier,1,478993,1255
8001,2,83,Transformed-Images/Splice/,wrench,Transformed-Images/Splice/wrench5.jpg,wrench,1,480256,1172
8001,2,84,Transformed-Images/Splice/,flash,Transformed-Images/Splice/flash1.jpg,flash,1,481436,1150
8001,2,85,Transformed-Images/Splice/,plier,Transformed-Images/Splice/plier5.jpg,plier,1,482594,1749
8001,2,86,Transformed-Images/Splice/,saw,Transformed-Images/Splice/saw4.jpg,saw,1,484351,1260
8001,2,87,Transformed-Images/Splice/,axe,Transformed-Images/Splice/axe3.jpg,axe,1,485619,2255
8001,2,88,Transformed-Images/Splice/,screw,Transformed-Images/Splice/screw4.jpg,screw,1,487882,1915
8001,2,89,Transformed-Images/Splice/,flash,Transformed-Images/Splice/flash2.jpg,flash,1,489805,1196
8001,2,90,Transformed-Images/Splice/,screw,Transformed-Images/Splice/screw1.jpg,screw,1,491009,1172
8001,2,91,Transformed-Images/Frame-Nature/,axe,Transformed-Images/Frame-Nature/axe4.jpg,axe,1,493415,4187
8001,2,92,Transformed-Images/Frame-Nature/,saw,Transformed-Images/Frame-Nature/saw2.jpg,saw,1,497621,1142
8001,2,93,Transformed-Images/Frame-Nature/,wrench,Transformed-Images/Frame-Nature/wrench1.jpg,wrench,1,498781,3036
8001,2,94,Transformed-Images/Frame-Nature/,tape,Transformed-Images/Frame-Nature/tape4.jpg,tape,1,501835,1475
8001,2,95,Transformed-Images/Frame-Nature/,hammer,Transformed-Images/Frame-Nature/hammer5.jpg,hammer,1,503327,833
8001,2,96,Transformed-Images/Frame-Nature/,hammer,Transformed-Images/Frame-Nature/hammer1.jpg,hammer,1,504176,1160
8001,2,97,Transformed-Images/Frame-Nature/,scissor,Transformed-Images/Frame-Nature/scissor3.jpg,scissor,1,505352,1005
8001,2,98,Transformed-Images/Frame-Nature/,hammer,Transformed-Images/Frame-Nature/hammer2.jpg,hammer,1,506375,1217
8001,2,99,Transformed-Images/Frame-Nature/,scissor,Transformed-Images/Frame-Nature/scissor2.jpg,scissor,1,507609,996
8001,2,100,Transformed-Images/Frame-Nature/,screw,Transformed-Images/Frame-Nature/screw2.jpg,screw,1,508622,1359
8001,2,101,Transformed-Images/Frame-Nature/,plier,Transformed-Images/Frame-Nature/plier3.jpg,plier,1,509998,1473
8001,2,102,Transformed-Images/Frame-Nature/,flash,Transformed-Images/Frame-Nature/flash4.jpg,flash,1,511487,2602
8001,2,103,Transformed-Images/Frame-Nature/,scissor,Transformed-Images/Frame-Nature/scissor1.jpg,scissor,1,514106,3466
8001,2,104,Transformed-Images/Frame-Nature/,screw,Transformed-Images/Frame-Nature/screw5.jpg,screw,1,517589,1270
8001,2,105,Transformed-Images/Frame-Nature/,flash,Transformed-Images/Frame-Nature/flash2.jpg,flash,1,518877,1099
8001,2,106,Transformed-Images/Frame-Nature/,shovel,Transformed-Images/Frame-Nature/shovel2.jpg,shovel,1,519992,1554
8001,2,107,Transformed-Images/Frame-Nature/,saw,Transformed-Images/Frame-Nature/saw4.jpg,saw,1,521564,1174
8001,2,108,Transformed-Images/Frame-Nature/,flash,Transformed-Images/Frame-Nature/flash3.jpg,flash,1,522755,1981
8001,2,109,Transformed-Images/Frame-Nature/,plier,Transformed-Images/Frame-Nature/plier2.jpg,plier,1,524751,9078
8001,2,110,Transformed-Images/Frame-Nature/,wrench,Transformed-Images/Frame-Nature/wrench5.jpg,wrench,1,533846,1154
8001,2,111,Transformed-Images/Frame-Nature/,wrench,Transformed-Images/Frame-Nature/wrench2.jpg,wrench,1,535017,1591
8001,2,112,Transformed-Images/Frame-Nature/,saw,Transformed-Images/Frame-Nature/saw5.jpg,saw,1,536626,1359
8001,2,113,Transformed-Images/Frame-Nature/,tape,Transformed-Images/Frame-Nature/tape3.jpg,tape,1,538002,1202
8001,2,114,Transformed-Images/Frame-Nature/,plier,Transformed-Images/Frame-Nature/plier4.jpg,plier,1,539221,4000
8001,2,115,Transformed-Images/Frame-Nature/,axe,Transformed-Images/Frame-Nature/axe1.jpg,axe,1,543238,1466
8001,2,116,Transformed-Images/Frame-Nature/,shovel,Transformed-Images/Frame-Nature/shovel3.jpg,shovel,1,544721,1296
8001,2,117,Transformed-Images/Frame-Nature/,shovel,Transformed-Images/Frame-Nature/shovel4.jpg,shovel,1,546034,3751
8001,2,118,Transformed-Images/Frame-Nature/,axe,Transformed-Images/Frame-Nature/axe3.jpg,axe,1,549803,1229
8001,2,119,Transformed-Images/Frame-Nature/,screw,Transformed-Images/Frame-Nature/screw4.jpg,screw,1,551050,1233
8001,2,120,Transformed-Images/Frame-Nature/,tape,Transformed-Images/Frame-Nature/tape1.jpg,tape,1,552301,1047
8001,2,121,Transformed-Images/Edge-Tools/,plier,Transformed-Images/Edge-Tools/plier5.jpg,plier,1,554489,1819
8001,2,122,Transformed-Images/Edge-Tools/,scissor,Transformed-Images/Edge-Tools/scissor2.jpg,scissor,1,556318,1581
8001,2,123,Transformed-Images/Edge-Tools/,screw,Transformed-Images/Edge-Tools/screw4.jpg,screw,1,557907,1015
8001,2,124,Transformed-Images/Edge-Tools/,saw,Transformed-Images/Edge-Tools/saw3.jpg,saw,1,558931,1213
8001,2,125,Transformed-Images/Edge-Tools/,hammer,Transformed-Images/Edge-Tools/hammer5.jpg,hammer,1,560154,891
8001,2,126,Transformed-Images/Edge-Tools/,wrench,Transformed-Images/Edge-Tools/wrench2.jpg,wrench,1,561054,1160
8001,2,127,Transformed-Images/Edge-Tools/,plier,Transformed-Images/Edge-Tools/plier4.jpg,plier,1,562223,1964
8001,2,128,Transformed-Images/Edge-Tools/,screw,Transformed-Images/Edge-Tools/screw1.jpg,screw,1,564196,973
8001,2,129,Transformed-Images/Edge-Tools/,flash,Transformed-Images/Edge-Tools/flash1.jpg,flash,1,565178,1075
8001,2,130,Transformed-Images/Edge-Tools/,hammer,Transformed-Images/Edge-Tools/hammer2.jpg,hammer,1,566263,989
8001,2,131,Transformed-Images/Edge-Tools/,scissor,Transformed-Images/Edge-Tools/scissor3.jpg,scissor,1,567261,3053
8001,2,132,Transformed-Images/Edge-Tools/,shovel,Transformed-Images/Edge-Tools/shovel3.jpg,shovel,1,570322,1518
8001,2,133,Transformed-Images/Edge-Tools/,flash,Transformed-Images/Edge-Tools/flash3.jpg,flash,1,571849,972
8001,2,134,Transformed-Images/Edge-Tools/,tape,Transformed-Images/Edge-Tools/tape1.jpg,tape,1,572831,1317
8001,2,135,Transformed-Images/Edge-Tools/,plier,Transformed-Images/Edge-Tools/plier1.jpg,plier,1,574157,2151
8001,2,136,Transformed-Images/Edge-Tools/,axe,Transformed-Images/Edge-Tools/axe4.jpg,axe,1,576316,3529
8001,2,137,Transformed-Images/Edge-Tools/,axe,Transformed-Images/Edge-Tools/axe5.jpg,axe,1,579854,2247
8001,2,138,Transformed-Images/Edge-Tools/,flash,Transformed-Images/Edge-Tools/flash2.jpg,flash,1,582110,1142
8001,2,139,Transformed-Images/Edge-Tools/,wrench,Transformed-Images/Edge-Tools/wrench4.jpg,wrench,1,583261,1304
8001,2,140,Transformed-Images/Edge-Tools/,wrench,Transformed-Images/Edge-Tools/wrench5.jpg,wrench,1,584574,943
8001,2,141,Transformed-Images/Edge-Tools/,shovel,Transformed-Images/Edge-Tools/shovel4.jpg,shovel,1,585526,1169
8001,2,142,Transformed-Images/Edge-Tools/,axe,Transformed-Images/Edge-Tools/axe2.jpg,axe,1,586704,1373
8001,2,143,Transformed-Images/Edge-Tools/,tape,Transformed-Images/Edge-Tools/tape5.jpg,tape,1,588086,1140
8001,2,144,Transformed-Images/Edge-Tools/,scissor,Transformed-Images/Edge-Tools/scissor4.jpg,scissor,1,589235,2774
8001,2,145,Transformed-Images/Edge-Tools/,tape,Transformed-Images/Edge-Tools/tape2.jpg,tape,1,592018,2111
8001,2,146,Transformed-Images/Edge-Tools/,hammer,Transformed-Images/Edge-Tools/hammer1.jpg,hammer,1,594138,2297
8001,2,147,Transformed-Images/Edge-Tools/,screw,Transformed-Images/Edge-Tools/screw3.jpg,screw,1,596444,868
8001,2,148,Transformed-Images/Edge-Tools/,shovel,Transformed-Images/Edge-Tools/shovel5.jpg,shovel,1,597321,1133
8001,2,149,Transformed-Images/Edge-Tools/,saw,Transformed-Images/Edge-Tools/saw1.jpg,saw,1,598464,1149
8001,2,150,Transformed-Images/Edge-Tools/,saw,Transformed-Images/Edge-Tools/saw5.jpg,saw,1,599623,1807
8001,2,151,Transformed-Images/Shear-Tools/,axe,Transformed-Images/Shear-Tools/axe2.jpg,axe,1,602594,1971
8001,2,152,Transformed-Images/Shear-Tools/,screw,Transformed-Images/Shear-Tools/screw2.jpg,screw,1,604574,1185
8001,2,153,Transformed-Images/Shear-Tools/,saw,Transformed-Images/Shear-Tools/saw2.jpg,saw,1,605768,998
8001,2,154,Transformed-Images/Shear-Tools/,scissor,Transformed-Images/Shear-Tools/scissor4.jpg,scissor,1,606775,1376
8001,2,155,Transformed-Images/Shear-Tools/,screw,Transformed-Images/Shear-Tools/screw3.jpg,screw,1,608160,1127
8001,2,156,Transformed-Images/Shear-Tools/,shovel,Transformed-Images/Shear-Tools/shovel1.jpg,shovel,1,609298,1676
8001,2,157,Transformed-Images/Shear-Tools/,screw,Transformed-Images/Shear-Tools/screw5.jpg,screw,1,610983,1040
8001,2,158,Transformed-Images/Shear-Tools/,plier,Transformed-Images/Shear-Tools/plier5.jpg,plier,1,612033,1272
8001,2,159,Transformed-Images/Shear-Tools/,flash,Transformed-Images/Shear-Tools/flash5.jpg,flash,1,613314,1017
8001,2,160,Transformed-Images/Shear-Tools/,tape,Transformed-Images/Shear-Tools/tape4.jpg,tape,1,614340,1068
8001,2,161,Transformed-Images/Shear-Tools/,shovel,Transformed-Images/Shear-Tools/shovel3.jpg,shovel,1,615418,876
8001,2,162,Transformed-Images/Shear-Tools/,scissor,Transformed-Images/Shear-Tools/scissor1.jpg,scissor,1,616300,1555
8001,2,163,Transformed-Images/Shear-Tools/,hammer,Transformed-Images/Shear-Tools/hammer3.jpg,hammer,1,617864,1666
8001,2,164,Transformed-Images/Shear-Tools/,tape,Transformed-Images/Shear-Tools/tape3.jpg,tape,1,619539,949
8001,2,165,Transformed-Images/Shear-Tools/,saw,Transformed-Images/Shear-Tools/saw5.jpg,saw,1,620498,1523
8001,2,166,Transformed-Images/Shear-Tools/,scissor,Transformed-Images/Shear-Tools/scissor5.jpg,scissor,1,622030,1545
8001,2,167,Transformed-Images/Shear-Tools/,plier,Transformed-Images/Shear-Tools/plier3.jpg,plier,1,623585,1079
8001,2,168,Transformed-Images/Shear-Tools/,hammer,Transformed-Images/Shear-Tools/hammer4.jpg,hammer,1,624673,1392
8001,2,169,Transformed-Images/Shear-Tools/,shovel,Transformed-Images/Shear-Tools/shovel2.jpg,shovel,1,626074,1403
8001,2,170,Transformed-Images/Shear-Tools/,wrench,Transformed-Images/Shear-Tools/wrench1.jpg,plier,0,627486,874
8001,2,171,Transformed-Images/Shear-Tools/,saw,Transformed-Images/Shear-Tools/saw1.jpg,saw,1,628369,1852
8001,2,172,Transformed-Images/Shear-Tools/,plier,Transformed-Images/Shear-Tools/plier4.jpg,plier,1,630230,1298
8001,2,173,Transformed-Images/Shear-Tools/,wrench,Transformed-Images/Shear-Tools/wrench4.jpg,wrench,1,631537,1098
8001,2,174,Transformed-Images/Shear-Tools/,wrench,Transformed-Images/Shear-Tools/wrench2.jpg,wrench,1,632644,1095
8001,2,175,Transformed-Images/Shear-Tools/,axe,Transformed-Images/Shear-Tools/axe5.jpg,axe,1,633748,1183
8001,2,176,Transformed-Images/Shear-Tools/,flash,Transformed-Images/Shear-Tools/flash3.jpg,flash,1,634940,1166
8001,2,177,Transformed-Images/Shear-Tools/,hammer,Transformed-Images/Shear-Tools/hammer5.jpg,hammer,1,636116,1021
8001,2,178,Transformed-Images/Shear-Tools/,flash,Transformed-Images/Shear-Tools/flash2.jpg,flash,1,637147,1119
8001,2,179,Transformed-Images/Shear-Tools/,axe,Transformed-Images/Shear-Tools/axe1.jpg,axe,1,638275,1623
8001,2,180,Transformed-Images/Shear-Tools/,tape,Transformed-Images/Shear-Tools/tape1.jpg,tape,1,639908,1515
2006,3,1,Transformed-Images/Rotation/,wrench,Transformed-Images/Rotation/wrench4.jpg,wrench,1,547135,4912
2006,3,2,Transformed-Images/Rotation/,tape,Transformed-Images/Rotation/tape5.jpg,tape,1,552056,4882
2006,3,3,Transformed-Images/Rotation/,flash,Transformed-Images/Rotation/flash3.jpg,flash,1,556948,1569
2006,3,4,Transformed-Images/Rotation/,saw,Transformed-Images/Rotation/saw5.jpg,saw,1,558527,2576
2006,3,5,Transformed-Images/Rotation/,flash,Transformed-Images/Rotation/flash1.jpg,flash,1,561112,1877
2006,3,6,Transformed-Images/Rotation/,scissor,Transformed-Images/Rotation/scissor5.jpg,scissor,1,562998,2323
2006,3,7,Transformed-Images/Rotation/,hammer,Transformed-Images/Rotation/hammer4.jpg,hammer,1,565331,4160
2006,3,8,Transformed-Images/Rotation/,axe,Transformed-Images/Rotation/axe2.jpg,axe,1,569500,1809
2006,3,9,Transformed-Images/Rotation/,scissor,Transformed-Images/Rotation/scissor1.jpg,scissor,1,571316,1892
2006,3,10,Transformed-Images/Rotation/,wrench,Transformed-Images/Rotation/wrench3.jpg,wrench,1,573218,1339
2006,3,11,Transformed-Images/Rotation/,tape,Transformed-Images/Rotation/tape3.jpg,tape,1,574566,2675
2006,3,12,Transformed-Images/Rotation/,plier,Transformed-Images/Rotation/plier1.jpg,plier,1,577251,2911
2006,3,13,Transformed-Images/Rotation/,shovel,Transformed-Images/Rotation/shovel3.jpg,shovel,1,580172,3354
2006,3,14,Transformed-Images/Rotation/,plier,Transformed-Images/Rotation/plier5.jpg,plier,1,583535,4274
2006,3,15,Transformed-Images/Rotation/,shovel,Transformed-Images/Rotation/shovel1.jpg,shovel,1,587819,2251
2006,3,16,Transformed-Images/Rotation/,hammer,Transformed-Images/Rotation/hammer5.jpg,hammer,1,590080,1354
2006,3,17,Transformed-Images/Rotation/,screw,Transformed-Images/Rotation/screw4.jpg,screw,1,591444,2099
2006,3,18,Transformed-Images/Rotation/,saw,Transformed-Images/Rotation/saw4.jpg,saw,1,593552,4389
2006,3,19,Transformed-Images/Rotation/,shovel,Transformed-Images/Rotation/shovel4.jpg,shovel,1,597951,1454
2006,3,20,Transformed-Images/Rotation/,screw,Transformed-Images/Rotation/screw1.jpg,screw,1,599415,2551
2006,3,21,Transformed-Images/Rotation/,screw,Transformed-Images/Rotation/screw3.jpg,screw,1,601976,710
2006,3,22,Transformed-Images/Rotation/,saw,Transformed-Images/Rotation/saw3.jpg,saw,1,602696,3276
2006,3,23,Transformed-Images/Rotation/,axe,Transformed-Images/Rotation/axe4.jpg,axe,1,605982,1365
2006,3,24,Transformed-Images/Rotation/,plier,Transformed-Images/Rotation/plier4.jpg,plier,1,607356,1709
2006,3,25,Transformed-Images/Rotation/,scissor,Transformed-Images/Rotation/scissor3.jpg,scissor,1,609075,1908
2006,3,26,Transformed-Images/Rotation/,axe,Transformed-Images/Rotation/axe1.jpg,axe,1,610993,1890
2006,3,27,Transformed-Images/Rotation/,flash,Transformed-Images/Rotation/flash2.jpg,flash,1,612893,1421
2006,3,28,Transformed-Images/Rotation/,tape,Transformed-Images/Rotation/tape4.jpg,tape,1,614324,1963
2006,3,29,Transformed-Images/Rotation/,hammer,Transformed-Images/Rotation/hammer3.jpg,hammer,1,616296,2569
2006,3,30,Transformed-Images/Rotation/,wrench,Transformed-Images/Rotation/wrench2.jpg,wrench,1,618874,1248
2006,3,31,Transformed-Images/Rainbow-Tools/,hammer,Transformed-Images/Rainbow-Tools/hammer2.jpg,plier,0,625532,10355
2006,3,32,Transformed-Images/Rainbow-Tools/,screw,Transformed-Images/Rainbow-Tools/screw4.jpg,screw,1,635895,1485
2006,3,33,Transformed-Images/Rainbow-Tools/,flash,Transformed-Images/Rainbow-Tools/flash3.jpg,flash,1,637388,2341
2006,3,34,Transformed-Images/Rainbow-Tools/,saw,Transformed-Images/Rainbow-Tools/saw1.jpg,saw,1,639737,2506
2006,3,35,Transformed-Images/Rainbow-Tools/,tape,Transformed-Images/Rainbow-Tools/tape3.jpg,tape,1,642251,1731
2006,3,36,Transformed-Images/Rainbow-Tools/,shovel,Transformed-Images/Rainbow-Tools/shovel1.jpg,shovel,1,643990,2221
2006,3,37,Transformed-Images/Rainbow-Tools/,axe,Transformed-Images/Rainbow-Tools/axe2.jpg,axe,1,646219,1214
2006,3,38,Transformed-Images/Rainbow-Tools/,tape,Transformed-Images/Rainbow-Tools/tape2.jpg,tape,1,647441,1356
2006,3,39,Transformed-Images/Rainbow-Tools/,screw,Transformed-Images/Rainbow-Tools/screw3.jpg,screw,1,648805,2814
2006,3,40,Transformed-Images/Rainbow-Tools/,tape,Transformed-Images/Rainbow-Tools/tape4.jpg,tape,1,651628,1673
2006,3,41,Transformed-Images/Rainbow-Tools/,scissor,Transformed-Images/Rainbow-Tools/scissor2.jpg,scissor,1,653312,2276
2006,3,42,Transformed-Images/Rainbow-Tools/,hammer,Transformed-Images/Rainbow-Tools/hammer1.jpg,hammer,1,655597,1778
2006,3,43,Transformed-Images/Rainbow-Tools/,plier,Transformed-Images/Rainbow-Tools/plier2.jpg,plier,1,657383,4047
2006,3,44,Transformed-Images/Rainbow-Tools/,axe,Transformed-Images/Rainbow-Tools/axe3.jpg,axe,1,661439,1793
2006,3,45,Transformed-Images/Rainbow-Tools/,flash,Transformed-Images/Rainbow-Tools/flash4.jpg,flash,1,663240,943
2006,3,46,Transformed-Images/Rainbow-Tools/,saw,Transformed-Images/Rainbow-Tools/saw4.jpg,saw,1,664191,3218
2006,3,47,Transformed-Images/Rainbow-Tools/,wrench,Transformed-Images/Rainbow-Tools/wrench2.jpg,wrench,1,667417,1111
2006,3,48,Transformed-Images/Rainbow-Tools/,hammer,Transformed-Images/Rainbow-Tools/hammer5.jpg,hammer,1,668536,1622
2006,3,49,Transformed-Images/Rainbow-Tools/,wrench,Transformed-Images/Rainbow-Tools/wrench3.jpg,wrench,1,670166,1434
2006,3,50,Transformed-Images/Rainbow-Tools/,shovel,Transformed-Images/Rainbow-Tools/shovel5.jpg,shovel,1,671608,1458
2006,3,51,Transformed-Images/Rainbow-Tools/,plier,Transformed-Images/Rainbow-Tools/plier5.jpg,plier,1,673074,1739
2006,3,52,Transformed-Images/Rainbow-Tools/,saw,Transformed-Images/Rainbow-Tools/saw2.jpg,saw,1,674821,1356
2006,3,53,Transformed-Images/Rainbow-Tools/,screw,Transformed-Images/Rainbow-Tools/screw2.jpg,screw,1,676185,1401
2006,3,54,Transformed-Images/Rainbow-Tools/,scissor,Transformed-Images/Rainbow-Tools/scissor4.jpg,scissor,1,677594,1209
2006,3,55,Transformed-Images/Rainbow-Tools/,wrench,Transformed-Images/Rainbow-Tools/wrench4.jpg,wrench,1,678811,1188
2006,3,56,Transformed-Images/Rainbow-Tools/,plier,Transformed-Images/Rainbow-Tools/plier1.jpg,plier,1,680008,3005
2006,3,57,Transformed-Images/Rainbow-Tools/,scissor,Transformed-Images/Rainbow-Tools/scissor1.jpg,scissor,1,683019,1480
2006,3,58,Transformed-Images/Rainbow-Tools/,flash,Transformed-Images/Rainbow-Tools/flash1.jpg,flash,1,684507,1507
2006,3,59,Transformed-Images/Rainbow-Tools/,axe,Transformed-Images/Rainbow-Tools/axe1.jpg,axe,1,686022,1193
2006,3,60,Transformed-Images/Rainbow-Tools/,shovel,Transformed-Images/Rainbow-Tools/shovel2.jpg,plier,0,687223,1526
2006,3,61,Transformed-Images/Wave-Tools/,scissor,Transformed-Images/Wave-Tools/scissor1.jpg,scissor,1,690231,2459
2006,3,62,Transformed-Images/Wave-Tools/,hammer,Transformed-Images/Wave-Tools/hammer5.jpg,hammer,1,692698,1330
2006,3,63,Transformed-Images/Wave-Tools/,hammer,Transformed-Images/Wave-Tools/hammer3.jpg,hammer,1,694037,1184
2006,3,64,Transformed-Images/Wave-Tools/,wrench,Transformed-Images/Wave-Tools/wrench5.jpg,wrench,1,695229,1625
2006,3,65,Transformed-Images/Wave-Tools/,shovel,Transformed-Images/Wave-Tools/shovel1.jpg,shovel,1,696863,2561
2006,3,66,Transformed-Images/Wave-Tools/,axe,Transformed-Images/Wave-Tools/axe1.jpg,axe,1,699433,1365
2006,3,67,Transformed-Images/Wave-Tools/,saw,Transformed-Images/Wave-Tools/saw2.jpg,saw,1,700806,2081
2006,3,68,Transformed-Images/Wave-Tools/,axe,Transformed-Images/Wave-Tools/axe5.jpg,axe,1,702896,2438
2006,3,69,Transformed-Images/Wave-Tools/,shovel,Transformed-Images/Wave-Tools/shovel2.jpg,shovel,1,705343,1833
2006,3,70,Transformed-Images/Wave-Tools/,tape,Transformed-Images/Wave-Tools/tape5.jpg,tape,1,707185,1793
2006,3,71,Transformed-Images/Wave-Tools/,saw,Transformed-Images/Wave-Tools/saw4.jpg,saw,1,708986,1732
2006,3,72,Transformed-Images/Wave-Tools/,scissor,Transformed-Images/Wave-Tools/scissor4.jpg,scissor,1,710727,1522
2006,3,73,Transformed-Images/Wave-Tools/,screw,Transformed-Images/Wave-Tools/screw1.jpg,screw,1,712257,1215
2006,3,74,Transformed-Images/Wave-Tools/,flash,Transformed-Images/Wave-Tools/flash1.jpg,flash,1,713481,1436
2006,3,75,Transformed-Images/Wave-Tools/,flash,Transformed-Images/Wave-Tools/flash4.jpg,flash,1,714924,601
2006,3,76,Transformed-Images/Wave-Tools/,tape,Transformed-Images/Wave-Tools/tape2.jpg,tape,1,715532,1327
2006,3,77,Transformed-Images/Wave-Tools/,wrench,Transformed-Images/Wave-Tools/wrench4.jpg,wrench,1,716867,1155
2006,3,78,Transformed-Images/Wave-Tools/,plier,Transformed-Images/Wave-Tools/plier4.jpg,plier,1,718030,1054
2006,3,79,Transformed-Images/Wave-Tools/,plier,Transformed-Images/Wave-Tools/plier5.jpg,plier,1,719092,679
2006,3,80,Transformed-Images/Wave-Tools/,screw,Transformed-Images/Wave-Tools/screw2.jpg,screw,1,719779,1949
2006,3,81,Transformed-Images/Wave-Tools/,saw,Transformed-Images/Wave-Tools/saw1.jpg,saw,1,721737,2133
2006,3,82,Transformed-Images/Wave-Tools/,screw,Transformed-Images/Wave-Tools/screw4.jpg,screw,1,723878,1970
2006,3,83,Transformed-Images/Wave-Tools/,plier,Transformed-Images/Wave-Tools/plier2.jpg,plier,1,725856,1914
2006,3,84,Transformed-Images/Wave-Tools/,wrench,Transformed-Images/Wave-Tools/wrench3.jpg,wrench,1,727778,2227
2006,3,85,Transformed-Images/Wave-Tools/,scissor,Transformed-Images/Wave-Tools/scissor2.jpg,scissor,1,730013,3827
2006,3,86,Transformed-Images/Wave-Tools/,shovel,Transformed-Images/Wave-Tools/shovel3.jpg,shovel,1,733849,1710
2006,3,87,Transformed-Images/Wave-Tools/,tape,Transformed-Images/Wave-Tools/tape4.jpg,tape,1,735567,1322
2006,3,88,Transformed-Images/Wave-Tools/,flash,Transformed-Images/Wave-Tools/flash5.jpg,flash,1,736898,1154
2006,3,89,Transformed-Images/Wave-Tools/,hammer,Transformed-Images/Wave-Tools/hammer1.jpg,hammer,1,738060,1638
2006,3,90,Transformed-Images/Wave-Tools/,axe,Transformed-Images/Wave-Tools/axe2.jpg,axe,1,739706,1074
2006,3,91,Transformed-Images/Original-Tools/,axe,Transformed-Images/Original-Tools/axe3.jpg,axe,1,742610,1498
2006,3,92,Transformed-Images/Original-Tools/,shovel,Transformed-Images/Original-Tools/shovel2.jpg,shovel,1,744116,1714
2006,3,93,Transformed-Images/Original-Tools/,plier,Transformed-Images/Original-Tools/plier2.jpg,plier,1,745838,2459
2006,3,94,Transformed-Images/Original-Tools/,screw,Transformed-Images/Original-Tools/screw1.jpg,screw,1,748305,1238
2006,3,95,Transformed-Images/Original-Tools/,plier,Transformed-Images/Original-Tools/plier3.jpg,plier,1,749551,1178
2006,3,96,Transformed-Images/Original-Tools/,saw,Transformed-Images/Original-Tools/saw2.jpg,saw,1,750737,1092
2006,3,97,Transformed-Images/Original-Tools/,hammer,Transformed-Images/Original-Tools/hammer4.jpg,hammer,1,751837,1309
2006,3,98,Transformed-Images/Original-Tools/,flash,Transformed-Images/Original-Tools/flash1.jpg,flash,1,753154,1129
2006,3,99,Transformed-Images/Original-Tools/,flash,Transformed-Images/Original-Tools/flash3.jpg,flash,1,754291,799
2006,3,100,Transformed-Images/Original-Tools/,axe,Transformed-Images/Original-Tools/axe5.jpg,axe,1,755098,1393
2006,3,101,Transformed-Images/Original-Tools/,scissor,Transformed-Images/Original-Tools/scissor5.jpg,scissor,1,756499,1260
2006,3,102,Transformed-Images/Original-Tools/,tape,Transformed-Images/Original-Tools/tape4.jpg,tape,1,757767,1025
2006,3,103,Transformed-Images/Original-Tools/,shovel,Transformed-Images/Original-Tools/shovel1.jpg,shovel,1,758800,1405
2006,3,104,Transformed-Images/Original-Tools/,hammer,Transformed-Images/Original-Tools/hammer1.jpg,hammer,1,760213,1620
2006,3,105,Transformed-Images/Original-Tools/,scissor,Transformed-Images/Original-Tools/scissor2.jpg,scissor,1,761842,1213
2006,3,106,Transformed-Images/Original-Tools/,shovel,Transformed-Images/Original-Tools/shovel3.jpg,shovel,1,763063,1262
2006,3,107,Transformed-Images/Original-Tools/,tape,Transformed-Images/Original-Tools/tape2.jpg,tape,1,764333,1051
2006,3,108,Transformed-Images/Original-Tools/,tape,Transformed-Images/Original-Tools/tape1.jpg,tape,1,765391,481
2006,3,109,Transformed-Images/Original-Tools/,screw,Transformed-Images/Original-Tools/screw3.jpg,screw,1,765880,1030
2006,3,110,Transformed-Images/Original-Tools/,wrench,Transformed-Images/Original-Tools/wrench5.jpg,wrench,1,766918,1701
2006,3,111,Transformed-Images/Original-Tools/,screw,Transformed-Images/Original-Tools/screw2.jpg,screw,1,768627,1131
2006,3,112,Transformed-Images/Original-Tools/,saw,Transformed-Images/Original-Tools/saw4.jpg,saw,1,769766,1397
2006,3,113,Transformed-Images/Original-Tools/,plier,Transformed-Images/Original-Tools/plier5.jpg,plier,1,771171,1173
2006,3,114,Transformed-Images/Original-Tools/,hammer,Transformed-Images/Original-Tools/hammer3.jpg,hammer,1,772351,1009
2006,3,115,Transformed-Images/Original-Tools/,flash,Transformed-Images/Original-Tools/flash2.jpg,flash,1,773368,993
2006,3,116,Transformed-Images/Original-Tools/,saw,Transformed-Images/Original-Tools/saw3.jpg,saw,1,774370,1689
2006,3,117,Transformed-Images/Original-Tools/,wrench,Transformed-Images/Original-Tools/wrench2.jpg,wrench,1,776067,1047
2006,3,118,Transformed-Images/Original-Tools/,wrench,Transformed-Images/Original-Tools/wrench1.jpg,plier,0,777123,1485
2006,3,119,Transformed-Images/Original-Tools/,axe,Transformed-Images/Original-Tools/axe1.jpg,axe,1,778615,1283
2006,3,120,Transformed-Images/Original-Tools/,scissor,Transformed-Images/Original-Tools/scissor4.jpg,scissor,1,779906,1268
2006,3,121,Transformed-Images/Frame-Leaves/,hammer,Transformed-Images/Frame-Leaves/hammer3.jpg,hammer,1,782759,1946
2006,3,122,Transformed-Images/Frame-Leaves/,scissor,Transformed-Images/Frame-Leaves/scissor5.jpg,scissor,1,784715,1466
2006,3,123,Transformed-Images/Frame-Leaves/,tape,Transformed-Images/Frame-Leaves/tape1.jpg,tape,1,786191,1503
2006,3,124,Transformed-Images/Frame-Leaves/,shovel,Transformed-Images/Frame-Leaves/shovel4.jpg,shovel,1,787704,1523
2006,3,125,Transformed-Images/Frame-Leaves/,axe,Transformed-Images/Frame-Leaves/axe3.jpg,axe,1,789238,2067
2006,3,126,Transformed-Images/Frame-Leaves/,tape,Transformed-Images/Frame-Leaves/tape2.jpg,tape,1,791315,1027
2006,3,127,Transformed-Images/Frame-Leaves/,flash,Transformed-Images/Frame-Leaves/flash5.jpg,flash,1,792352,961
2006,3,128,Transformed-Images/Frame-Leaves/,scissor,Transformed-Images/Frame-Leaves/scissor3.jpg,scissor,1,793322,1275
2006,3,129,Transformed-Images/Frame-Leaves/,wrench,Transformed-Images/Frame-Leaves/wrench4.jpg,wrench,1,794607,1539
2006,3,130,Transformed-Images/Frame-Leaves/,plier,Transformed-Images/Frame-Leaves/plier4.jpg,plier,1,796156,2459
2006,3,131,Transformed-Images/Frame-Leaves/,screw,Transformed-Images/Frame-Leaves/screw5.jpg,screw,1,798625,1116
2006,3,132,Transformed-Images/Frame-Leaves/,plier,Transformed-Images/Frame-Leaves/plier5.jpg,plier,1,799751,968
2006,3,133,Transformed-Images/Frame-Leaves/,wrench,Transformed-Images/Frame-Leaves/wrench2.jpg,wrench,1,800729,1096
2006,3,134,Transformed-Images/Frame-Leaves/,tape,Transformed-Images/Frame-Leaves/tape4.jpg,tape,1,801835,1026
2006,3,135,Transformed-Images/Frame-Leaves/,hammer,Transformed-Images/Frame-Leaves/hammer5.jpg,hammer,1,802871,1136
2006,3,136,Transformed-Images/Frame-Leaves/,plier,Transformed-Images/Frame-Leaves/plier3.jpg,plier,1,804017,1838
2006,3,137,Transformed-Images/Frame-Leaves/,screw,Transformed-Images/Frame-Leaves/screw3.jpg,screw,1,805865,1010
2006,3,138,Transformed-Images/Frame-Leaves/,axe,Transformed-Images/Frame-Leaves/axe5.jpg,axe,1,806885,1099
2006,3,139,Transformed-Images/Frame-Leaves/,shovel,Transformed-Images/Frame-Leaves/shovel2.jpg,shovel,1,807993,1066
2006,3,140,Transformed-Images/Frame-Leaves/,flash,Transformed-Images/Frame-Leaves/flash1.jpg,flash,1,809068,1036
2006,3,141,Transformed-Images/Frame-Leaves/,flash,Transformed-Images/Frame-Leaves/flash2.jpg,flash,1,810114,966
2006,3,142,Transformed-Images/Frame-Leaves/,axe,Transformed-Images/Frame-Leaves/axe2.jpg,axe,1,811090,1191
2006,3,143,Transformed-Images/Frame-Leaves/,saw,Transformed-Images/Frame-Leaves/saw3.jpg,saw,1,812291,1175
2006,3,144,Transformed-Images/Frame-Leaves/,hammer,Transformed-Images/Frame-Leaves/hammer4.jpg,hammer,1,813475,1036
2006,3,145,Transformed-Images/Frame-Leaves/,screw,Transformed-Images/Frame-Leaves/screw4.jpg,screw,1,814521,1115
2006,3,146,Transformed-Images/Frame-Leaves/,saw,Transformed-Images/Frame-Leaves/saw2.jpg,saw,1,815645,1069
2006,3,147,Transformed-Images/Frame-Leaves/,shovel,Transformed-Images/Frame-Leaves/shovel5.jpg,shovel,1,816724,878
2006,3,148,Transformed-Images/Frame-Leaves/,scissor,Transformed-Images/Frame-Leaves/scissor4.jpg,scissor,1,817611,1024
2006,3,149,Transformed-Images/Frame-Leaves/,saw,Transformed-Images/Frame-Leaves/saw5.jpg,saw,1,818645,964
2006,3,150,Transformed-Images/Frame-Leaves/,wrench,Transformed-Images/Frame-Leaves/wrench3.jpg,wrench,1,819619,781
